time,ax,ay,az,wx,wy,wz
2025-01-27T11:03:30.155Z,-0.0802,0.1032,-0.0363,-0.0021,0.0081,-0.0007
2025-01-27T11:03:30.166Z,0.0167,-0.0439,0.0351,0.0015,-0.0006,0.0101
2025-01-27T11:03:30.176Z,0.0905,-0.0618,-0.0374,-0.0026,-0.0054,0.0174
2025-01-27T11:03:30.186Z,-0.1586,0.0775,0.0412,-0.0013,0.0056,-0.0123
2025-01-27T11:03:30.196Z,0.1234,-0.0592,-0.0489,0.0062,-0.0110,0.0089
2025-01-27T11:03:30.206Z,-0.0041,-0.0147,0.0283,-0.0051,0.0013,0.0054
2025-01-27T11:03:30.217Z,-0.0685,0.0347,-0.0065,0.0002,-0.0048,-0.0037
2025-01-27T11:03:30.226Z,0.0672,-0.0224,-0.0396,0.0050,-0.0015,0.0101
2025-01-27T11:03:30.236Z,-0.0242,-0.0151,0.0334,-0.0021,-0.0060,0.0054
2025-01-27T11:03:30.246Z,-0.0149,0.0167,-0.0009,-0.0021,0.0010,-0.0087
2025-01-27T11:03:30.256Z,0.0330,-0.0188,-0.0118,0.0012,-0.0018,0.0055
2025-01-27T11:03:30.267Z,0.0338,-0.0223,0.0095,-0.0024,-0.0038,0.0162
2025-01-27T11:03:30.276Z,-0.0410,0.0284,0.0026,-0.0036,0.0004,-0.0113
2025-01-27T11:03:30.286Z,0.0343,-0.0108,-0.0294,0.0009,0.0019,-0.0055
2025-01-27T11:03:30.296Z,0.0625,-0.0387,0.0119,0.0016,-0.0072,0.0254
2025-01-27T11:03:30.306Z,-0.0700,0.0570,0.0062,-0.0031,-0.0044,-0.0204
2025-01-27T11:03:30.317Z,0.0268,-0.0071,-0.0089,0.0018,-0.0007,0.0069
2025-01-27T11:03:30.326Z,0.0781,-0.0350,-0.0366,0.0021,-0.0070,0.0212
2025-01-27T11:03:30.336Z,-0.1315,0.0473,0.0340,-0.0051,0.0020,-0.0251
2025-01-27T11:03:30.346Z,0.0837,-0.0471,-0.0269,0.0016,-0.0037,0.0196
2025-01-27T11:03:30.356Z,0.0396,-0.0201,-0.0152,0.0030,-0.0098,0.0070
2025-01-27T11:03:30.367Z,-0.1317,0.0530,0.0303,-0.0068,0.0062,-0.0151
2025-01-27T11:03:30.376Z,0.1390,-0.0564,-0.0534,0.0047,-0.0119,0.0283
2025-01-27T11:03:30.386Z,-0.0597,0.0271,0.0117,0.0000,0.0007,-0.0075
2025-01-27T11:03:30.396Z,-0.0428,-0.0080,0.0360,-0.0043,-0.0004,-0.0032
2025-01-27T11:03:30.406Z,0.1337,-0.0503,-0.0303,0.0019,-0.0098,0.0211
2025-01-27T11:03:30.416Z,-0.1128,0.0535,0.0430,0.0002,0.0021,-0.0101
2025-01-27T11:03:30.426Z,0.0434,-0.0361,-0.0196,0.0016,-0.0050,0.0016
2025-01-27T11:03:30.436Z,0.0410,-0.0348,-0.0230,0.0018,-0.0037,0.0064
2025-01-27T11:03:30.446Z,-0.0877,0.0291,0.0259,-0.0034,-0.0003,-0.0077
2025-01-27T11:03:30.456Z,0.0531,-0.0349,-0.0139,-0.0023,-0.0033,0.0033
2025-01-27T11:03:30.467Z,0.0067,-0.0138,-0.0115,-0.0004,-0.0028,0.0067
2025-01-27T11:03:30.476Z,-0.0378,0.0172,0.0062,-0.0000,-0.0022,0.0068
2025-01-27T11:03:30.487Z,0.0122,-0.0101,-0.0067,-0.0013,-0.0014,-0.0086
2025-01-27T11:03:30.496Z,0.0076,-0.0240,0.0030,0.0004,-0.0008,0.0153
2025-01-27T11:03:30.506Z,0.0019,0.0328,-0.0115,-0.0002,-0.0043,-0.0023
2025-01-27T11:03:30.517Z,-0.0167,0.0117,0.0234,-0.0019,0.0031,-0.0056
2025-01-27T11:03:30.526Z,0.0867,-0.0266,-0.0315,0.0025,-0.0126,0.0186
2025-01-27T11:03:30.537Z,-0.0854,0.0346,0.0110,-0.0006,0.0075,-0.0138
2025-01-27T11:03:30.546Z,0.0263,-0.0562,0.0176,0.0013,-0.0089,0.0042
2025-01-27T11:03:30.556Z,0.0548,-0.0070,-0.0294,0.0006,-0.0043,0.0067
2025-01-27T11:03:30.566Z,-0.0880,0.0355,0.0424,-0.0057,0.0030,-0.0110
2025-01-27T11:03:30.576Z,0.0880,-0.0558,-0.0326,0.0011,-0.0038,0.0145
2025-01-27T11:03:30.587Z,-0.0257,0.0107,0.0075,-0.0009,-0.0007,0.0066
2025-01-27T11:03:30.596Z,-0.0356,0.0166,-0.0109,-0.0005,-0.0032,-0.0096
2025-01-27T11:03:30.606Z,0.0617,-0.0443,0.0036,-0.0014,-0.0014,0.0069
2025-01-27T11:03:30.616Z,-0.0191,0.0175,-0.0089,-0.0001,-0.0001,0.0022
2025-01-27T11:03:30.626Z,-0.0062,0.0099,-0.0050,-0.0007,-0.0057,-0.0047
2025-01-27T11:03:30.636Z,0.0272,0.0029,-0.0212,0.0028,-0.0011,0.0056
2025-01-27T11:03:30.646Z,-0.0056,-0.0081,0.0089,-0.0006,-0.0063,-0.0004
2025-01-27T11:03:30.656Z,-0.0137,0.0227,-0.0041,-0.0007,-0.0026,0.0016
2025-01-27T11:03:30.666Z,0.0257,-0.0091,-0.0041,0.0021,-0.0028,-0.0043
2025-01-27T11:03:30.676Z,0.0228,-0.0075,-0.0088,0.0005,-0.0022,0.0054
2025-01-27T11:03:30.687Z,0.0083,-0.0096,0.0010,-0.0005,-0.0060,0.0167
2025-01-27T11:03:30.696Z,-0.0219,0.0204,-0.0064,-0.0003,-0.0022,-0.0066
2025-01-27T11:03:30.706Z,-0.0061,-0.0129,0.0008,0.0007,0.0013,0.0011
2025-01-27T11:03:30.716Z,0.0457,-0.0289,-0.0306,-0.0024,-0.0085,0.0102
2025-01-27T11:03:30.726Z,-0.0771,0.0382,0.0098,-0.0028,0.0036,-0.0105
2025-01-27T11:03:30.737Z,0.0552,-0.0178,0.0063,0.0016,-0.0054,0.0186
2025-01-27T11:03:30.746Z,0.0154,-0.0111,-0.0050,-0.0005,-0.0026,0.0136
2025-01-27T11:03:30.756Z,-0.0671,0.0365,0.0268,-0.0008,0.0020,-0.0196
2025-01-27T11:03:30.766Z,0.0918,-0.0596,-0.0366,0.0017,-0.0041,0.0198
2025-01-27T11:03:30.776Z,-0.0138,0.0040,-0.0019,0.0005,-0.0019,-0.0058
2025-01-27T11:03:30.787Z,-0.0691,0.0396,0.0057,-0.0017,0.0043,-0.0105
2025-01-27T11:03:30.796Z,0.1172,-0.0475,-0.0348,0.0037,-0.0097,0.0253
2025-01-27T11:03:30.806Z,-0.0729,0.0470,0.0158,-0.0040,0.0001,-0.0103
2025-01-27T11:03:30.817Z,-0.0089,-0.0297,0.0252,-0.0022,0.0017,-0.0061
2025-01-27T11:03:30.826Z,0.1041,-0.0455,-0.0580,0.0041,-0.0078,0.0185
2025-01-27T11:03:30.837Z,-0.1177,0.0552,0.0328,-0.0025,0.0025,-0.0155
2025-01-27T11:03:30.846Z,0.0647,-0.0018,-0.0176,0.0016,-0.0023,0.0045
2025-01-27T11:03:30.856Z,0.0657,-0.0292,-0.0217,0.0032,-0.0058,0.0208
2025-01-27T11:03:30.867Z,-0.0837,0.0488,0.0204,-0.0009,-0.0001,-0.0178
2025-01-27T11:03:30.876Z,0.0417,-0.0241,-0.0073,-0.0004,0.0034,0.0031
2025-01-27T11:03:30.887Z,0.0575,-0.0104,-0.0166,0.0032,-0.0100,0.0131
2025-01-27T11:03:30.896Z,-0.0967,0.0473,0.0174,-0.0009,0.0043,-0.0120
2025-01-27T11:03:30.906Z,0.0794,-0.0499,-0.0208,0.0015,-0.0027,0.0125
2025-01-27T11:03:30.917Z,0.0298,-0.0004,-0.0193,0.0002,-0.0051,0.0055
2025-01-27T11:03:30.926Z,-0.0804,0.0530,0.0099,-0.0032,0.0057,-0.0100
2025-01-27T11:03:30.937Z,0.1023,-0.0435,-0.0312,0.0034,-0.0060,0.0179
2025-01-27T11:03:30.946Z,-0.0400,0.0174,0.0144,-0.0020,-0.0003,0.0017
2025-01-27T11:03:30.956Z,-0.0532,0.0063,0.0044,-0.0021,-0.0010,-0.0099
2025-01-27T11:03:30.967Z,0.0997,-0.0502,-0.0344,0.0016,-0.0059,0.0215
2025-01-27T11:03:30.976Z,-0.0333,0.0335,0.0045,-0.0000,-0.0049,-0.0074
2025-01-27T11:03:30.987Z,-0.0255,0.0210,-0.0092,-0.0024,0.0034,-0.0066
2025-01-27T11:03:30.996Z,0.0930,-0.0719,-0.0088,0.0022,-0.0095,0.0298
2025-01-27T11:03:31.006Z,-0.0953,0.0742,-0.0176,-0.0014,-0.0015,-0.0182
2025-01-27T11:03:31.017Z,-0.0031,-0.0132,0.0114,-0.0017,0.0010,0.0033
2025-01-27T11:03:31.026Z,0.1085,-0.0502,-0.0469,0.0045,-0.0109,0.0177
2025-01-27T11:03:31.037Z,-0.1387,0.0572,0.0349,-0.0035,0.0080,-0.0155
2025-01-27T11:03:31.046Z,0.0829,-0.0377,-0.0354,-0.0021,-0.0100,0.0010
2025-01-27T11:03:31.056Z,0.0090,0.0013,-0.0243,0.0009,0.0006,0.0224
2025-01-27T11:03:31.067Z,-0.0864,0.0462,0.0300,-0.0016,-0.0060,-0.0124
2025-01-27T11:03:31.076Z,0.0305,-0.0156,-0.0309,0.0017,0.0035,0.0054
2025-01-27T11:03:31.087Z,0.0534,-0.0314,0.0065,-0.0006,-0.0126,0.0225
2025-01-27T11:03:31.096Z,-0.0831,0.0888,-0.0047,-0.0058,0.0039,-0.0314
2025-01-27T11:03:31.107Z,0.0630,-0.0544,0.0203,0.0009,-0.0008,0.0160
2025-01-27T11:03:31.117Z,0.0711,-0.0178,-0.0399,0.0011,-0.0074,0.0186
2025-01-27T11:03:31.126Z,-0.1620,0.0674,0.0724,-0.0068,0.0051,-0.0187
2025-01-27T11:03:31.137Z,0.1368,-0.0449,-0.0676,0.0028,-0.0122,0.0059
2025-01-27T11:03:31.146Z,-0.0150,-0.0067,0.0234,0.0009,0.0023,0.0137
2025-01-27T11:03:31.156Z,-0.0643,0.0296,0.0144,-0.0014,-0.0083,-0.0183
2025-01-27T11:03:31.167Z,0.0483,-0.0291,-0.0390,0.0026,0.0063,0.0169
2025-01-27T11:03:31.176Z,0.0116,-0.0234,-0.0005,-0.0018,-0.0084,0.0088
2025-01-27T11:03:31.188Z,0.0497,-0.0415,-0.0106,-0.0047,0.0044,-0.0093
2025-01-27T11:03:31.196Z,0.0497,-0.0415,-0.0106,0.0024,-0.0081,0.0056
2025-01-27T11:03:31.206Z,0.0066,0.0032,-0.0164,-0.0013,0.0009,0.0113
2025-01-27T11:03:31.216Z,-0.0812,0.0405,0.0357,-0.0059,-0.0032,-0.0075
2025-01-27T11:03:31.227Z,-0.0334,-0.0014,0.0246,0.0022,-0.0032,0.0119
2025-01-27T11:03:31.237Z,-0.0248,0.0133,-0.0124,0.0013,-0.0022,0.0065
2025-01-27T11:03:31.247Z,0.0420,-0.0356,-0.0157,-0.0050,-0.0035,-0.0146
2025-01-27T11:03:31.256Z,0.0420,-0.0356,-0.0157,0.0020,-0.0043,0.0199
2025-01-27T11:03:31.267Z,-0.0434,0.0058,0.0276,0.0019,-0.0067,-0.0076
2025-01-27T11:03:31.277Z,0.1098,-0.0494,-0.0435,-0.0014,0.0047,-0.0023
2025-01-27T11:03:31.287Z,-0.0895,0.0445,0.0180,0.0020,-0.0117,0.0187
2025-01-27T11:03:31.297Z,0.0395,-0.0255,-0.0022,-0.0010,0.0041,-0.0086
2025-01-27T11:03:31.308Z,0.0388,-0.0090,-0.0425,-0.0011,-0.0069,0.0034
2025-01-27T11:03:31.317Z,-0.0855,0.0217,0.0288,0.0035,-0.0001,0.0054
2025-01-27T11:03:31.327Z,0.0610,-0.0373,-0.0330,-0.0024,-0.0020,-0.0043
2025-01-27T11:03:31.337Z,-0.0290,-0.0017,0.0170,0.0010,-0.0046,0.0036
2025-01-27T11:03:31.346Z,-0.0019,-0.0057,-0.0116,-0.0018,0.0022,0.0047
2025-01-27T11:03:31.357Z,0.0105,-0.0020,-0.0121,-0.0009,-0.0032,0.0079
2025-01-27T11:03:31.367Z,0.0049,0.0029,-0.0125,-0.0013,-0.0001,-0.0043
2025-01-27T11:03:31.376Z,0.0069,-0.0145,-0.0071,0.0023,0.0008,0.0043
2025-01-27T11:03:31.387Z,-0.0261,0.0006,-0.0062,-0.0011,-0.0028,0.0074
2025-01-27T11:03:31.396Z,0.0263,-0.0090,-0.0229,-0.0008,-0.0011,-0.0035
2025-01-27T11:03:31.407Z,0.0277,-0.0294,0.0095,0.0015,-0.0005,-0.0012
2025-01-27T11:03:31.417Z,-0.0431,0.0363,-0.0101,-0.0010,-0.0034,0.0130
2025-01-27T11:03:31.426Z,0.0245,-0.0126,-0.0009,-0.0001,-0.0012,-0.0087
2025-01-27T11:03:31.437Z,0.0447,-0.0191,-0.0269,0.0022,0.0019,0.0085
2025-01-27T11:03:31.446Z,-0.0883,0.0493,0.0285,0.0006,-0.0081,0.0126
2025-01-27T11:03:31.457Z,0.0804,-0.0213,-0.0181,-0.0029,0.0043,-0.0111
2025-01-27T11:03:31.467Z,0.0024,-0.0027,-0.0115,0.0025,-0.0085,0.0157
2025-01-27T11:03:31.476Z,-0.0750,0.0400,0.0153,0.0013,-0.0047,0.0057
2025-01-27T11:03:31.487Z,0.1121,-0.0771,-0.0247,-0.0018,0.0027,-0.0165
2025-01-27T11:03:31.496Z,-0.0249,0.0202,-0.0004,0.0024,-0.0052,0.0166
2025-01-27T11:03:31.506Z,-0.0551,0.0337,0.0090,0.0012,-0.0024,0.0089
2025-01-27T11:03:31.517Z,0.0874,-0.0379,-0.0431,-0.0036,-0.0016,-0.0122
2025-01-27T11:03:31.526Z,-0.0111,-0.0111,-0.0009,0.0016,-0.0038,0.0083
2025-01-27T11:03:31.537Z,-0.0384,0.0245,-0.0019,-0.0019,-0.0073,0.0051
2025-01-27T11:03:31.546Z,0.0470,-0.0230,-0.0128,-0.0012,-0.0001,-0.0122
2025-01-27T11:03:31.556Z,-0.0027,0.0133,-0.0034,0.0006,-0.0048,0.0070
2025-01-27T11:03:31.567Z,-0.0287,0.0216,0.0108,0.0005,-0.0026,0.0062
2025-01-27T11:03:31.576Z,0.0561,-0.0142,-0.0124,-0.0006,0.0014,-0.0062
2025-01-27T11:03:31.587Z,0.0000,-0.0198,-0.0083,0.0006,-0.0044,-0.0004
2025-01-27T11:03:31.596Z,-0.0131,0.0166,-0.0007,-0.0012,0.0008,0.0124
2025-01-27T11:03:31.606Z,-0.0075,-0.0039,-0.0202,-0.0043,-0.0073,0.0023
2025-01-27T11:03:31.617Z,0.0286,-0.0245,-0.0091,0.0002,-0.0015,0.0034
2025-01-27T11:03:31.626Z,-0.0194,0.0107,-0.0107,-0.0006,-0.0050,0.0078
2025-01-27T11:03:31.638Z,0.0051,0.0009,-0.0070,0.0049,-0.0045,0.0048
2025-01-27T11:03:31.646Z,0.0194,-0.0256,-0.0021,0.0049,-0.0045,0.0048
2025-01-27T11:03:31.656Z,-0.0226,0.0043,0.0168,-0.0014,-0.0020,0.0046
2025-01-27T11:03:31.667Z,0.0132,0.0024,-0.0185,0.0021,0.0001,0.0074
2025-01-27T11:03:31.676Z,0.0139,0.0016,-0.0083,0.0021,0.0001,0.0074
2025-01-27T11:03:31.687Z,-0.0000,-0.0008,0.0036,-0.0014,0.0004,0.0027
2025-01-27T11:03:31.697Z,0.0004,-0.0051,-0.0062,0.0017,-0.0068,0.0037
2025-01-27T11:03:31.706Z,-0.0401,0.0157,-0.0169,0.0017,-0.0068,0.0037
2025-01-27T11:03:31.717Z,0.0289,-0.0209,-0.0031,-0.0031,-0.0048,0.0152
2025-01-27T11:03:31.727Z,0.0083,0.0052,-0.0368,0.0014,-0.0059,-0.0033
2025-01-27T11:03:31.737Z,-0.0420,-0.0007,0.0024,-0.0031,0.0013,0.0018
2025-01-27T11:03:31.746Z,0.0614,-0.0402,-0.0263,-0.0014,-0.0056,0.0124
2025-01-27T11:03:31.757Z,-0.0611,0.0300,0.0048,-0.0030,0.0009,-0.0083
2025-01-27T11:03:31.767Z,0.0037,-0.0177,-0.0067,-0.0020,-0.0008,0.0041
2025-01-27T11:03:31.776Z,0.0359,-0.0232,-0.0167,0.0032,-0.0027,0.0150
2025-01-27T11:03:31.787Z,-0.0798,0.0479,0.0002,-0.0004,-0.0006,-0.0119
2025-01-27T11:03:31.797Z,0.0697,-0.0450,-0.0148,0.0038,-0.0074,0.0112
2025-01-27T11:03:31.807Z,0.0136,-0.0041,-0.0175,-0.0012,-0.0063,0.0143
2025-01-27T11:03:31.817Z,-0.0910,0.0447,0.0113,-0.0022,0.0047,-0.0246
2025-01-27T11:03:31.826Z,0.0970,-0.0484,-0.0193,0.0025,-0.0043,0.0133
2025-01-27T11:03:31.837Z,-0.0070,-0.0046,-0.0160,0.0021,-0.0011,0.0043
2025-01-27T11:03:31.846Z,-0.0933,0.0252,0.0303,-0.0022,-0.0006,-0.0166
2025-01-27T11:03:31.857Z,0.1337,-0.0550,-0.0411,0.0024,-0.0040,0.0240
2025-01-27T11:03:31.867Z,-0.0280,0.0077,0.0102,-0.0034,-0.0056,0.0048
2025-01-27T11:03:31.876Z,-0.0876,0.0541,0.0149,-0.0016,0.0058,-0.0178
2025-01-27T11:03:31.887Z,0.1279,-0.0984,-0.0265,0.0074,0.0148,0.2598
2025-01-27T11:03:31.896Z,-0.0549,0.0773,0.0097,0.0102,0.0080,1.5877
2025-01-27T11:03:31.907Z,-1.8568,1.7364,-0.0864,0.0046,-0.1221,0.8232
2025-01-27T11:03:31.916Z,-1.5579,0.6179,0.3135,-0.0220,0.1857,0.3808
2025-01-27T11:03:31.926Z,3.1848,-1.9980,-0.3704,0.0494,-0.0911,1.4479
2025-01-27T11:03:31.937Z,-1.2544,1.0309,-0.0593,-0.0038,-0.0697,0.8399
2025-01-27T11:03:31.946Z,-2.0870,0.7665,0.5970,-0.0382,0.1255,0.2993
2025-01-27T11:03:31.956Z,3.3084,-1.7523,-0.7368,0.0608,-0.0381,1.2527
2025-01-27T11:03:31.966Z,-0.9478,0.5797,0.2442,-0.0082,-0.0502,1.2874
2025-01-27T11:03:31.976Z,-2.3857,1.3271,0.2972,-0.0157,0.0668,0.3752
2025-01-27T11:03:31.988Z,2.2440,-1.4311,-0.3651,0.0282,0.0168,0.9306
2025-01-27T11:03:31.996Z,0.6495,-0.3663,-0.0765,0.0189,-0.0698,1.4185
2025-01-27T11:03:32.006Z,-2.4460,1.4833,0.3321,-0.0236,0.0257,0.4269
2025-01-27T11:03:32.017Z,0.9364,-0.7383,-0.1490,0.0202,0.0967,0.6469
2025-01-27T11:03:32.026Z,1.9100,-1.0803,-0.2481,0.0306,-0.0881,1.2903
2025-01-27T11:03:32.037Z,-2.1450,1.2229,0.3467,-0.0196,0.0303,0.9166
2025-01-27T11:03:32.046Z,-0.3244,0.2689,-0.0934,0.0090,0.0138,0.5833
2025-01-27T11:03:32.056Z,1.6523,-1.0751,-0.1951,0.0296,0.0002,1.0567
2025-01-27T11:03:32.066Z,-0.6144,0.3066,0.1675,-0.0096,-0.0249,1.1456
2025-01-27T11:03:32.076Z,-1.0438,0.7855,-0.0198,-0.0008,0.0250,0.5435
2025-01-27T11:03:32.087Z,0.9244,-0.7290,-0.0447,0.0258,0.0517,0.8154
2025-01-27T11:03:32.096Z,0.8029,-0.5494,-0.0914,0.0038,-0.0534,1.1030
2025-01-27T11:03:32.106Z,-1.3699,0.8438,0.1935,-0.0044,0.0433,0.9331
2025-01-27T11:03:32.116Z,0.0407,0.0752,-0.1331,0.0216,-0.0167,0.7186
2025-01-27T11:03:32.126Z,0.6910,-0.5997,-0.0008,0.0103,0.0307,0.9245
2025-01-27T11:03:32.137Z,-0.1732,0.0514,0.0531,-0.0032,-0.0196,1.0982
2025-01-27T11:03:32.146Z,-0.5273,0.4963,-0.0737,0.0121,0.0002,0.7288
2025-01-27T11:03:32.156Z,0.1109,-0.2699,0.0787,0.0144,0.0507,0.7275
2025-01-27T11:03:32.166Z,0.9766,-0.6680,-0.1168,0.0032,-0.0470,0.9469
2025-01-27T11:03:32.176Z,-0.7086,0.4905,0.0764,0.0031,0.0337,1.0751
2025-01-27T11:03:32.187Z,-0.4503,0.3846,-0.0504,0.0129,-0.0349,0.7687
2025-01-27T11:03:32.196Z,0.2871,-0.2782,-0.0019,0.0014,0.0553,0.7807
2025-01-27T11:03:32.206Z,0.5258,-0.4031,-0.0191,0.0044,-0.0300,1.1874
2025-01-27T11:03:32.216Z,-0.5842,0.5881,-0.0679,0.0091,-0.0150,0.8367
2025-01-27T11:03:32.226Z,-0.5304,0.0962,0.1700,0.0078,0.0684,0.5736
2025-01-27T11:03:32.237Z,1.5600,-1.0098,-0.1875,0.0018,-0.0387,1.0300
2025-01-27T11:03:32.246Z,-0.6206,0.4758,0.0382,0.0105,0.0070,1.1566
2025-01-27T11:03:32.256Z,-1.1331,0.7349,0.0824,0.0112,0.0030,0.6612
2025-01-27T11:03:32.267Z,0.8605,-0.6692,-0.0807,0.0054,0.0431,0.8632
2025-01-27T11:03:32.276Z,0.5373,-0.3260,-0.0413,0.0061,-0.0352,1.1101
2025-01-27T11:03:32.287Z,-0.9213,0.6709,0.0499,0.0116,0.0117,0.8288
2025-01-27T11:03:32.296Z,-0.0051,-0.0935,0.0069,0.0050,0.0166,0.6438
2025-01-27T11:03:32.306Z,0.9896,-0.7412,-0.0608,0.0019,-0.0178,0.9184
2025-01-27T11:03:32.317Z,-0.4599,0.3972,-0.0154,0.0123,0.0148,1.0583
2025-01-27T11:03:32.326Z,-0.5872,0.3651,0.0702,0.0077,-0.0131,0.8341
2025-01-27T11:03:32.337Z,0.1890,-0.1519,-0.0560,0.0070,0.0408,0.7641
2025-01-27T11:03:32.346Z,0.5206,-0.4451,0.0118,0.0066,-0.0029,1.0978
2025-01-27T11:03:32.356Z,-0.3177,0.3687,-0.0626,0.0079,-0.0291,0.9816
2025-01-27T11:03:32.367Z,-0.7211,0.3308,0.1018,0.0131,0.0400,0.5367
2025-01-27T11:03:32.376Z,1.1227,-0.8392,-0.0836,-0.0045,-0.0066,0.8661
2025-01-27T11:03:32.387Z,0.1263,0.0857,-0.0728,0.0086,-0.0028,1.1386
2025-01-27T11:03:32.396Z,-1.1507,0.7143,0.1380,0.0165,-0.0041,0.8516
2025-01-27T11:03:32.406Z,0.2128,-0.1418,-0.0590,0.0069,0.0357,0.7374
2025-01-27T11:03:32.417Z,0.7864,-0.6507,0.0100,0.0009,-0.0118,1.0501
2025-01-27T11:03:32.426Z,-0.3759,0.4247,-0.0734,0.0134,-0.0222,1.0436
2025-01-27T11:03:32.437Z,-0.7826,0.3741,0.1275,0.0133,0.0263,0.5148
2025-01-27T11:03:32.446Z,0.9509,-0.7812,-0.0552,-0.0048,0.0228,0.8152
2025-01-27T11:03:32.456Z,0.4891,-0.1416,-0.1173,0.0047,-0.0213,1.2198
2025-01-27T11:03:32.466Z,-1.3294,0.9051,0.1005,0.0214,-0.0005,0.8270
2025-01-27T11:03:32.476Z,0.0121,-0.1957,0.0311,-0.0009,0.0524,0.7199
2025-01-27T11:03:32.487Z,1.1706,-0.7987,-0.0517,-0.0133,-0.0319,1.0897
2025-01-27T11:03:32.496Z,-0.6961,0.6522,-0.0543,0.0203,-0.0057,1.0207
2025-01-27T11:03:32.506Z,-0.6821,0.3200,0.1158,0.0172,0.0184,0.5780
2025-01-27T11:03:32.516Z,1.0384,-0.8387,-0.0290,-0.0130,0.0228,0.8270
2025-01-27T11:03:32.526Z,0.2352,-0.0187,-0.1118,0.0137,-0.0157,1.1235
2025-01-27T11:03:32.537Z,-0.9823,0.6904,0.0950,0.0217,-0.0052,0.9298
2025-01-27T11:03:32.546Z,-0.0942,-0.0642,0.0215,-0.0062,0.0173,0.7236
2025-01-27T11:03:32.556Z,0.7768,-0.5631,-0.0570,0.0042,-0.0051,0.9150
2025-01-27T11:03:32.566Z,-0.1162,0.2040,-0.0756,0.0184,-0.0036,1.0924
2025-01-27T11:03:32.576Z,-0.6823,0.3512,0.1011,0.0075,-0.0081,0.6931
2025-01-27T11:03:32.587Z,0.3041,-0.3258,-0.0130,0.0014,0.0537,0.7060
2025-01-27T11:03:32.596Z,0.8346,-0.4916,-0.0955,0.0030,-0.0267,1.0619
2025-01-27T11:03:32.606Z,-0.7090,0.5495,0.0238,0.0182,-0.0033,1.0613
2025-01-27T11:03:32.617Z,-0.7051,0.3648,0.0574,0.0099,0.0111,0.6411
2025-01-27T11:03:32.626Z,0.8539,-0.6841,-0.0240,-0.0067,0.0208,0.8924
2025-01-27T11:03:32.637Z,0.3050,0.0116,-0.1267,0.0082,-0.0277,1.1680
2025-01-27T11:03:32.646Z,-1.0499,0.6799,0.1232,0.0281,0.0023,0.6923
2025-01-27T11:03:32.656Z,0.2336,-0.4136,0.0422,0.0034,0.0550,0.6616
2025-01-27T11:03:32.666Z,1.1990,-0.7189,-0.1071,-0.0142,-0.0356,1.0910
2025-01-27T11:03:32.676Z,-0.8819,0.7779,-0.0291,0.0357,-0.0019,1.0858
2025-01-27T11:03:32.687Z,-0.8148,0.3535,0.1268,0.0137,0.0110,0.6056
2025-01-27T11:03:32.696Z,0.9415,-0.7545,-0.0237,-0.0191,0.0381,0.8646
2025-01-27T11:03:32.706Z,0.4406,-0.0399,-0.1397,0.0137,-0.0234,1.2390
2025-01-27T11:03:32.716Z,-1.1308,0.8544,0.0856,0.0288,-0.0132,0.7010
2025-01-27T11:03:32.726Z,0.0202,-0.4192,0.1062,-0.0013,0.0765,0.6241
2025-01-27T11:03:32.737Z,1.5300,-0.8973,-0.1712,-0.0272,-0.0536,1.0748
2025-01-27T11:03:32.746Z,-0.9192,0.8885,-0.0477,0.0423,0.0088,1.0729
2025-01-27T11:03:32.756Z,-0.8959,0.3033,0.1516,0.0143,0.0032,0.6841
2025-01-27T11:03:32.767Z,0.9251,-0.7177,-0.0222,-0.0309,0.0346,0.8826
2025-01-27T11:03:32.776Z,0.2368,0.0374,-0.1480,0.0218,-0.0125,1.0910
2025-01-27T11:03:32.787Z,-0.7284,0.5641,0.0721,0.0260,-0.0101,0.8248
2025-01-27T11:03:32.796Z,-0.0483,-0.3069,0.1083,-0.0121,0.0368,0.6991
2025-01-27T11:03:32.806Z,0.8975,-0.5018,-0.1362,-0.0028,-0.0265,0.8957
2025-01-27T11:03:32.817Z,-0.3247,0.4265,-0.0622,0.0321,0.0185,1.0783
2025-01-27T11:03:32.826Z,-0.6120,0.2268,0.1339,0.0060,-0.0163,0.8854
2025-01-27T11:03:32.837Z,0.0910,-0.0584,-0.0297,-0.0028,0.0340,0.7008
2025-01-27T11:03:32.846Z,0.6309,-0.4531,-0.0543,0.0170,0.0168,1.1218
2025-01-27T11:03:32.856Z,-0.1367,0.3277,-0.0373,-0.0053,-0.0638,0.9925
2025-01-27T11:03:32.867Z,-1.0488,0.4536,0.1316,0.0319,0.0635,0.4966
2025-01-27T11:03:32.876Z,1.2925,-1.0559,-0.0409,-0.0259,-0.0068,0.8692
2025-01-27T11:03:32.887Z,0.3126,0.2161,-0.1519,0.0008,-0.0120,1.1800
2025-01-27T11:03:32.896Z,-1.4787,0.8195,0.1123,0.0539,0.0013,0.8132
2025-01-27T11:03:32.906Z,0.3268,-0.3542,0.0406,-0.0216,0.0292,0.7190
2025-01-27T11:03:32.916Z,0.9226,-0.6637,-0.0408,-0.0100,0.0014,1.1159
2025-01-27T11:03:32.926Z,-0.5291,0.7283,-0.1600,0.0346,-0.0403,0.9808
2025-01-27T11:03:32.937Z,-0.7701,0.1937,0.2172,0.0206,0.0394,0.5213
2025-01-27T11:03:32.946Z,1.0822,-0.9371,-0.0244,-0.0305,0.0181,0.8523
2025-01-27T11:03:32.956Z,0.3523,0.2399,-0.2144,0.0178,-0.0150,1.1806
2025-01-27T11:03:32.967Z,-1.2422,0.6975,0.1494,0.0395,-0.0095,0.8658
2025-01-27T11:03:32.976Z,0.0163,-0.2838,0.0835,-0.0244,0.0390,0.7212
2025-01-27T11:03:32.987Z,0.9891,-0.6040,-0.1287,-0.0046,-0.0086,1.0403
2025-01-27T11:03:32.996Z,-0.3435,0.5402,-0.1138,0.0324,-0.0223,1.0689
2025-01-27T11:03:33.006Z,-0.8435,0.2503,0.2157,0.0088,0.0109,0.5655
2025-01-27T11:03:33.017Z,0.7714,-0.7204,-0.0068,-0.0226,0.0511,0.8178
2025-01-27T11:03:33.026Z,0.6502,-0.0162,-0.2269,0.0106,-0.0317,1.0506
2025-01-27T11:03:33.037Z,-0.9954,0.5789,0.1537,0.0411,0.0129,0.9751
2025-01-27T11:03:33.046Z,-0.2070,-0.0606,0.0493,-0.0193,0.0038,0.7692
2025-01-27T11:03:33.056Z,0.6415,-0.3724,-0.0598,0.0049,0.0144,0.8938
2025-01-27T11:03:33.067Z,0.0804,0.1283,-0.1179,0.0241,-0.0097,1.1079
2025-01-27T11:03:33.076Z,-0.5916,0.3426,0.1457,0.0026,-0.0222,0.7064
2025-01-27T11:03:33.088Z,1.0511,-0.5338,-0.1293,0.0146,0.0724,0.7018
2025-01-27T11:03:33.096Z,1.0511,-0.5338,-0.1293,-0.0114,-0.0301,1.0367
2025-01-27T11:03:33.107Z,-0.5930,0.5391,0.0113,0.0281,-0.0084,1.0920
2025-01-27T11:03:33.116Z,-0.8687,0.3668,0.0557,0.0105,0.0034,0.6789
2025-01-27T11:03:33.126Z,0.7524,-0.5915,0.0290,-0.0118,0.0338,0.8443
2025-01-27T11:03:33.137Z,-1.0211,0.8217,0.0419,0.0063,-0.0166,1.2298
2025-01-27T11:03:33.147Z,-0.0906,-0.4545,0.1590,0.0307,-0.0371,0.6572
2025-01-27T11:03:33.156Z,-0.0906,-0.4545,0.1590,0.0067,0.0935,0.6225
2025-01-27T11:03:33.167Z,-0.9195,1.0573,-0.1023,-0.0383,-0.0394,1.1622
2025-01-27T11:03:33.177Z,-1.1794,0.3134,0.1955,0.0466,-0.0281,1.0426
2025-01-27T11:03:33.187Z,1.3672,-1.0711,0.0425,0.0306,0.0423,0.5713
2025-01-27T11:03:33.197Z,0.2420,0.3559,-0.3087,-0.0534,0.0178,0.9372
2025-01-27T11:03:33.207Z,-1.1880,0.6699,0.1567,0.0338,-0.0178,1.1523
2025-01-27T11:03:33.217Z,0.2909,-0.6596,0.1673,0.0482,-0.0167,0.6922
2025-01-27T11:03:33.227Z,1.1007,-0.4656,-0.2417,-0.0427,0.0570,0.6810
2025-01-27T11:03:33.238Z,-0.6379,0.7754,-0.0818,0.0033,-0.0193,1.0538
2025-01-27T11:03:33.246Z,-0.9074,0.1524,0.2791,0.0528,-0.0260,1.0833
2025-01-27T11:03:33.257Z,0.6863,-0.4653,-0.0938,-0.0118,0.0145,0.7098
2025-01-27T11:03:33.266Z,0.6352,-0.0859,-0.1986,-0.0166,0.0407,0.8309
2025-01-27T11:03:33.277Z,-0.7875,0.4217,0.1721,0.0278,-0.0172,1.1175
2025-01-27T11:03:33.287Z,-0.3133,-0.0854,0.0517,0.0090,-0.0232,0.8428
2025-01-27T11:03:33.296Z,1.1338,-0.6722,-0.1359,-0.0041,0.0559,0.6557
2025-01-27T11:03:33.307Z,-0.1924,0.3881,-0.0387,0.0007,-0.0136,0.9173
2025-01-27T11:03:33.316Z,-0.9789,0.3906,0.1524,0.0187,-0.0081,1.1125
2025-01-27T11:03:33.326Z,0.2818,-0.2014,-0.0257,0.0161,-0.0024,0.8063
2025-01-27T11:03:33.338Z,0.7448,-0.4243,-0.0923,-0.0059,0.0398,0.7620
2025-01-27T11:03:33.346Z,-0.4373,0.4345,-0.0191,0.0089,-0.0009,1.0930
2025-01-27T11:03:33.357Z,-0.6719,0.2373,0.0986,0.0153,-0.0441,0.9442
2025-01-27T11:03:33.366Z,1.0255,-0.8640,-0.0233,0.0098,0.0359,0.5578
2025-01-27T11:03:33.376Z,0.2940,0.2508,-0.1753,-0.0098,0.0208,0.9093
2025-01-27T11:03:33.387Z,-1.3252,0.7383,0.1490,0.0076,-0.0343,1.1814
2025-01-27T11:03:33.396Z,0.1584,-0.3787,0.0735,0.0387,-0.0035,0.7942
2025-01-27T11:03:33.406Z,1.1640,-0.5732,-0.1617,-0.0174,0.0524,0.7401
2025-01-27T11:03:33.417Z,-0.6104,0.6429,-0.0650,-0.0088,-0.0140,1.1007
2025-01-27T11:03:33.426Z,-0.8198,0.2001,0.1993,0.0410,-0.0322,0.9982
2025-01-27T11:03:33.438Z,1.0762,-0.8731,-0.0315,0.0018,0.0246,0.5081
2025-01-27T11:03:33.446Z,0.4604,0.2066,-0.2654,-0.0221,0.0399,0.8604
2025-01-27T11:03:33.456Z,-1.2794,0.6748,0.2257,0.0234,-0.0306,1.1527
2025-01-27T11:03:33.466Z,-0.0628,-0.2633,0.0551,0.0339,-0.0142,0.8529
2025-01-27T11:03:33.476Z,1.1200,-0.4957,-0.1869,-0.0208,0.0441,0.7207
2025-01-27T11:03:33.487Z,-0.3433,0.4137,-0.0313,0.0065,-0.0067,1.0388
2025-01-27T11:03:33.496Z,-0.8958,0.3250,0.1792,0.0314,-0.0306,1.0665
2025-01-27T11:03:33.506Z,0.7774,-0.6660,-0.0357,-0.0068,0.0092,0.5462
2025-01-27T11:03:33.517Z,0.8156,-0.1719,-0.2083,-0.0042,0.0612,0.7961
2025-01-27T11:03:33.526Z,-1.2418,0.8234,0.1485,0.0124,-0.0298,1.2008
2025-01-27T11:03:33.538Z,-0.4667,-0.0341,0.0669,-0.0004,0.0614,0.6608
2025-01-27T11:03:33.546Z,1.3471,-0.7592,-0.1240,-0.0004,0.0614,0.6608
2025-01-27T11:03:33.556Z,-0.1395,0.3850,-0.0903,-0.0076,0.0078,1.0537
2025-01-27T11:03:33.567Z,-1.2730,0.6298,0.1574,0.0145,0.0083,0.5274
2025-01-27T11:03:33.576Z,0.8453,-0.8657,0.0523,0.0145,0.0083,0.5274
2025-01-27T11:03:33.587Z,1.0317,-0.1841,-0.2764,-0.0100,0.0776,0.8154
2025-01-27T11:03:33.597Z,-1.2460,0.7495,0.1507,0.0447,0.0001,0.9683
2025-01-27T11:03:33.607Z,-0.3539,-0.1063,0.1084,-0.0266,0.0222,0.7568
2025-01-27T11:03:33.617Z,0.8716,-0.3526,-0.1398,0.0016,0.0024,0.8802
2025-01-27T11:03:33.627Z,-0.0297,0.1338,-0.0952,0.0421,0.0093,1.0768
2025-01-27T11:03:33.638Z,-0.5405,0.2200,0.1653,-0.0161,-0.0254,0.7474
2025-01-27T11:03:33.646Z,0.0097,-0.0772,-0.0332,0.0055,0.0599,0.6951
2025-01-27T11:03:33.657Z,0.8871,-0.5258,-0.1182,0.0209,-0.0075,1.0273
2025-01-27T11:03:33.667Z,-0.3249,0.3503,0.0602,-0.0072,-0.0315,1.1135
2025-01-27T11:03:33.676Z,-1.0240,0.5505,0.0530,0.0164,0.0099,0.6661
2025-01-27T11:03:33.687Z,0.6262,-0.5129,-0.0120,0.0124,0.0467,0.8256
2025-01-27T11:03:33.696Z,0.7530,-0.3244,-0.0819,-0.0090,-0.0191,1.1571
2025-01-27T11:03:33.707Z,-0.9409,0.6885,0.0407,0.0241,-0.0412,0.7605
2025-01-27T11:03:33.717Z,-0.2843,-0.0989,0.0795,0.0101,0.0671,0.5974
2025-01-27T11:03:33.726Z,1.4072,-0.9238,-0.0502,-0.0166,-0.0061,1.0816
2025-01-27T11:03:33.737Z,-0.4301,0.6772,-0.1581,0.0274,-0.0475,1.0895
2025-01-27T11:03:33.746Z,-1.3057,0.5551,0.1799,0.0146,0.0311,0.6308
2025-01-27T11:03:33.757Z,0.9163,-0.7742,0.0206,-0.0214,0.0482,0.8637
2025-01-27T11:03:33.766Z,0.7187,-0.0613,-0.2678,0.0207,-0.0333,1.1107
2025-01-27T11:03:33.776Z,-1.0397,0.5352,0.1866,0.0239,-0.0160,0.8308
2025-01-27T11:03:33.787Z,-0.1468,-0.1344,0.0937,-0.0220,0.0536,0.6693
2025-01-27T11:03:33.796Z,1.1652,-0.6209,-0.1670,0.0169,-0.0061,0.9402
2025-01-27T11:03:33.807Z,-0.2716,0.3548,-0.0695,0.0207,-0.0160,1.1028
2025-01-27T11:03:33.816Z,-0.9485,0.3612,0.1965,-0.0115,0.0012,0.8211
2025-01-27T11:03:33.826Z,0.2596,-0.1021,-0.1146,0.0123,0.0373,0.7452
2025-01-27T11:03:33.837Z,0.7996,-0.4792,-0.0559,0.0196,0.0055,1.1408
2025-01-27T11:03:33.846Z,-0.4407,0.3491,0.0764,-0.0107,-0.0532,0.9241
2025-01-27T11:03:33.857Z,-0.7825,0.4228,0.0094,0.0169,0.0526,0.5330
2025-01-27T11:03:33.866Z,1.2300,-1.0119,-0.0088,0.0129,0.0194,0.9271
2025-01-27T11:03:33.876Z,0.2630,0.2378,-0.1330,-0.0056,-0.0389,1.1427
2025-01-27T11:03:33.887Z,-1.4091,0.7393,0.1615,0.0188,0.0044,0.7917
2025-01-27T11:03:33.896Z,0.2639,-0.2825,0.0074,0.0053,0.0517,0.7771
2025-01-27T11:03:33.906Z,1.0872,-0.5756,-0.1092,-0.0031,-0.0200,1.0697
2025-01-27T11:03:33.916Z,-0.6693,0.5112,0.0086,0.0209,-0.0261,0.9790
2025-01-27T11:03:33.926Z,-0.6685,0.2640,0.0814,-0.0029,0.0205,0.5639
2025-01-27T11:03:33.937Z,0.9914,-0.7425,-0.0287,0.0004,0.0339,0.8493
2025-01-27T11:03:33.946Z,0.3359,0.0887,-0.1835,0.0189,-0.0230,1.1161
2025-01-27T11:03:33.956Z,-1.0490,0.5437,0.2149,0.0009,-0.0112,0.9300
2025-01-27T11:03:33.966Z,-0.1547,0.0441,-0.0232,0.0016,0.0214,0.7040
2025-01-27T11:03:33.976Z,0.9718,-0.5860,-0.1151,0.0209,0.0176,0.9990
2025-01-27T11:03:33.987Z,-0.0622,0.1083,0.0097,-0.0004,-0.0320,1.1216
2025-01-27T11:03:33.996Z,-1.0193,0.6546,0.0659,-0.0017,-0.0074,0.5029
2025-01-27T11:03:34.006Z,0.6297,-0.6548,0.0109,0.0210,0.0832,0.7645
2025-01-27T11:03:34.016Z,1.1043,-0.4926,-0.1648,0.0049,-0.0363,1.2176
2025-01-27T11:03:34.026Z,-1.2980,0.9372,0.1282,-0.0019,-0.0432,0.8930
2025-01-27T11:03:34.037Z,-0.6247,0.1489,0.0515,0.0108,0.0814,0.6963
2025-01-27T11:03:34.046Z,1.5426,-0.9141,-0.1341,0.0123,-0.0113,1.0204
2025-01-27T11:03:34.056Z,-0.2115,0.3128,-0.0165,0.0001,-0.0355,1.0912
2025-01-27T11:03:34.066Z,-1.2028,0.6025,0.1355,0.0032,0.0116,0.5752
2025-01-27T11:03:34.076Z,0.8397,-0.6087,-0.0473,0.0162,0.0635,0.8004
2025-01-27T11:03:34.087Z,0.8777,-0.3881,-0.1508,0.0049,-0.0443,1.0782
2025-01-27T11:03:34.096Z,-1.0922,0.6632,0.1362,0.0022,-0.0031,0.9992
2025-01-27T11:03:34.106Z,-0.4459,0.2299,-0.0153,0.0116,0.0262,0.7310
2025-01-27T11:03:34.116Z,0.9046,-0.5830,-0.0491,0.0123,0.0082,0.8946
2025-01-27T11:03:34.126Z,0.1389,-0.0504,-0.0098,0.0072,-0.0047,1.1442
2025-01-27T11:03:34.137Z,-0.7793,0.5603,0.0507,0.0002,-0.0285,0.6770
2025-01-27T11:03:34.146Z,0.1118,-0.1992,0.0359,0.0052,0.0788,0.6553
2025-01-27T11:03:34.156Z,1.2020,-0.7582,-0.1179,0.0160,-0.0206,1.1192
2025-01-27T11:03:34.167Z,-0.6588,0.6252,0.0167,-0.0015,-0.0480,1.0468
2025-01-27T11:03:34.176Z,-1.1002,0.5410,0.1256,-0.0041,0.0414,0.6333
2025-01-27T11:03:34.187Z,1.1009,-0.7177,-0.1246,0.0287,0.0235,0.8964
2025-01-27T11:03:34.196Z,0.4403,-0.1476,-0.1012,0.0025,-0.0339,1.1279
2025-01-27T11:03:34.206Z,-1.1613,0.6316,0.1685,-0.0113,-0.0111,0.7053
2025-01-27T11:03:34.217Z,0.2059,-0.1645,-0.1071,0.0230,0.0596,0.7497
2025-01-27T11:03:34.226Z,1.1722,-0.7726,-0.0908,0.0127,-0.0388,0.9836
2025-01-27T11:03:34.237Z,-0.7058,0.5110,0.0856,-0.0117,-0.0002,1.0773
2025-01-27T11:03:34.246Z,-0.6924,0.4539,0.0091,0.0198,0.0020,0.7297
2025-01-27T11:03:34.256Z,0.5533,-0.3282,-0.0551,0.0176,0.0289,0.8084
2025-01-27T11:03:34.267Z,0.5098,-0.4499,0.0417,-0.0010,-0.0003,1.1736
2025-01-27T11:03:34.276Z,-0.6465,0.6095,-0.0626,0.0101,-0.0537,0.7927
2025-01-27T11:03:34.287Z,-0.4087,0.0900,0.1205,-0.0026,0.0774,0.5843
2025-01-27T11:03:34.296Z,1.3751,-0.9816,-0.0844,0.0214,-0.0068,1.0342
2025-01-27T11:03:34.306Z,-0.2140,0.3950,-0.0971,0.0063,-0.0488,1.1435
2025-01-27T11:03:34.317Z,-1.4539,0.7566,0.2326,-0.0194,0.0270,0.6574
2025-01-27T11:03:34.326Z,0.8418,-0.5407,-0.1393,0.0334,0.0495,0.8242
2025-01-27T11:03:34.337Z,0.9407,-0.5020,-0.1052,0.0154,-0.0340,1.1683
2025-01-27T11:03:34.346Z,-1.1870,0.6726,0.2191,-0.0306,-0.0161,0.8078
2025-01-27T11:03:34.356Z,-0.2175,0.1612,-0.1005,0.0284,0.0605,0.6183
2025-01-27T11:03:34.367Z,1.3914,-0.9252,-0.1013,0.0322,-0.0090,0.9951
2025-01-27T11:03:34.376Z,-0.3960,0.3032,0.0668,-0.0232,-0.0235,1.1066
2025-01-27T11:03:34.387Z,-1.0805,0.7179,0.0255,0.0117,0.0160,0.7558
2025-01-27T11:03:34.396Z,0.6017,-0.3527,-0.1005,0.0342,0.0355,0.8291
2025-01-27T11:03:34.406Z,0.7294,-0.5654,0.0674,-0.0121,-0.0264,1.0595
2025-01-27T11:03:34.416Z,-0.6670,0.4962,-0.0067,0.0045,-0.0152,0.9281
2025-01-27T11:03:34.426Z,-0.3541,0.2509,-0.0269,0.0152,0.0247,0.6049
2025-01-27T11:03:34.437Z,0.9327,-0.7630,0.0342,0.0024,0.0186,0.8715
2025-01-27T11:03:34.446Z,0.1544,0.0337,-0.1124,0.0083,-0.0246,1.1334
2025-01-27T11:03:34.456Z,-1.0316,0.6860,0.1194,-0.0018,-0.0001,0.8340
2025-01-27T11:03:34.466Z,0.0667,-0.0927,0.0129,0.0061,0.0414,0.7317
2025-01-27T11:03:34.476Z,1.0081,-0.6606,-0.1034,0.0233,-0.0061,1.0809
2025-01-27T11:03:34.487Z,-0.4568,0.3403,0.0366,-0.0051,-0.0320,0.9993
2025-01-27T11:03:34.496Z,-0.8014,0.4818,0.0608,-0.0095,0.0319,0.5281
2025-01-27T11:03:34.506Z,1.0344,-0.7418,-0.0925,0.0406,0.0290,0.8566
2025-01-27T11:03:34.516Z,0.3914,-0.1714,-0.0552,0.0038,-0.0264,1.1288
2025-01-27T11:03:34.526Z,-1.1542,0.6701,0.2181,-0.0269,-0.0014,0.9037
2025-01-27T11:03:34.537Z,-0.0458,0.1887,-0.2001,0.0354,0.0277,0.7451
2025-01-27T11:03:34.546Z,0.9469,-0.7743,0.0392,0.0115,-0.0018,1.0067
2025-01-27T11:03:34.556Z,-0.2301,0.1431,0.0327,-0.0142,-0.0205,1.0663
2025-01-27T11:03:34.566Z,-0.7648,0.6262,-0.0579,0.0115,0.0040,0.5737
2025-01-27T11:03:34.576Z,0.6563,-0.5843,0.0313,0.0221,0.0566,0.8103
2025-01-27T11:03:34.587Z,0.7430,-0.4336,-0.1155,0.0016,-0.0419,1.0399
2025-01-27T11:03:34.596Z,-0.9676,0.6424,0.1383,-0.0124,0.0170,0.9978
2025-01-27T11:03:34.606Z,-0.2810,0.2655,-0.0795,0.0242,0.0086,0.7611
2025-01-27T11:03:34.616Z,0.7389,-0.5820,0.0044,0.0122,0.0128,0.9026
2025-01-27T11:03:34.626Z,0.0679,-0.0963,0.0241,-0.0002,-0.0114,1.1255
2025-01-27T11:03:34.637Z,-0.6761,0.5833,-0.0578,0.0080,-0.0210,0.6629
2025-01-27T11:03:34.646Z,0.1561,-0.2525,0.0918,0.0099,0.0759,0.7015
2025-01-27T11:03:34.656Z,1.0976,-0.7102,-0.1696,0.0258,-0.0361,1.1090
2025-01-27T11:03:34.667Z,-0.8456,0.6201,0.0788,-0.0162,-0.0126,1.0451
2025-01-27T11:03:34.676Z,-0.7975,0.5193,0.0810,0.0001,0.0215,0.6559
2025-01-27T11:03:34.687Z,1.0798,-0.6774,-0.1890,0.0420,0.0122,0.8756
2025-01-27T11:03:34.696Z,0.2589,-0.2850,0.0823,-0.0067,-0.0127,1.1783
2025-01-27T11:03:34.706Z,-0.9984,0.7569,0.0560,-0.0189,-0.0251,0.6749
2025-01-27T11:03:34.716Z,0.1656,-0.0831,-0.0768,0.0281,0.0798,0.6907
2025-01-27T11:03:34.726Z,1.2957,-0.9751,-0.0395,0.0217,-0.0427,1.0786
2025-01-27T11:03:34.737Z,-0.8182,0.6228,0.0927,-0.0325,-0.0050,1.0420
2025-01-27T11:03:34.746Z,-0.8464,0.6207,0.0127,0.0134,0.0217,0.6452
2025-01-27T11:03:34.756Z,1.0481,-0.6909,-0.1334,0.0417,0.0172,0.9130
2025-01-27T11:03:34.766Z,0.1897,-0.2920,0.1102,-0.0227,-0.0187,1.1320
2025-01-27T11:03:34.776Z,-0.9608,0.7459,-0.0024,-0.0041,-0.0093,0.7010
2025-01-27T11:03:34.787Z,0.2582,-0.1681,-0.0557,0.0337,0.0572,0.7056
2025-01-27T11:03:34.796Z,1.1146,-0.9042,0.0121,0.0079,-0.0369,1.0377
2025-01-27T11:03:34.806Z,-0.7564,0.5839,0.0277,-0.0215,0.0042,1.0577
2025-01-27T11:03:34.816Z,-0.6943,0.5308,-0.0034,0.0223,0.0097,0.7347
2025-01-27T11:03:34.826Z,0.7237,-0.4942,-0.0850,0.0216,0.0236,0.8218
2025-01-27T11:03:34.837Z,0.3798,-0.3995,0.0895,-0.0095,0.0007,1.1579
2025-01-27T11:03:34.846Z,-0.6531,0.6165,-0.0894,0.0102,-0.0335,0.8240
2025-01-27T11:03:34.856Z,-0.2884,0.1202,0.0963,0.0029,0.0713,0.5930
2025-01-27T11:03:34.866Z,1.2769,-0.9974,-0.0663,0.0238,-0.0173,1.0069
2025-01-27T11:03:34.876Z,-0.2966,0.2929,-0.0567,-0.0024,-0.0238,1.1371
2025-01-27T11:03:34.887Z,-1.2498,0.7927,0.1772,-0.0141,0.0227,0.7125
2025-01-27T11:03:34.896Z,0.7911,-0.4498,-0.1926,0.0398,0.0254,0.7951
2025-01-27T11:03:34.906Z,0.6576,-0.5684,0.0455,0.0055,-0.0099,1.1463
2025-01-27T11:03:34.916Z,-0.8672,0.6020,0.0934,-0.0204,-0.0226,0.8813
2025-01-27T11:03:34.926Z,-0.3046,0.3200,-0.1123,0.0211,0.0411,0.5460
2025-01-27T11:03:34.937Z,1.2159,-0.9977,-0.0010,0.0312,-0.0004,0.9538
2025-01-27T11:03:34.946Z,-0.0878,0.0971,-0.0381,-0.0135,-0.0275,1.1910
2025-01-27T11:03:34.956Z,-1.2840,0.9322,0.0978,-0.0091,0.0152,0.7461
2025-01-27T11:03:34.966Z,0.5607,-0.3099,-0.1235,0.0370,0.0387,0.7591
2025-01-27T11:03:34.976Z,0.9766,-0.8177,0.0094,0.0016,-0.0196,1.1390
2025-01-27T11:03:34.988Z,-0.5486,0.5023,-0.0901,-0.0201,-0.0184,0.9670
2025-01-27T11:03:34.996Z,-0.5486,0.5023,-0.0901,0.0200,0.0333,0.4979
2025-01-27T11:03:35.006Z,1.2583,-1.0572,0.0214,0.0289,0.0109,0.9059
2025-01-27T11:03:35.017Z,-1.2097,0.8439,0.1731,-0.0153,-0.0306,1.1062
2025-01-27T11:03:35.026Z,-1.2097,0.8439,0.1731,-0.0065,0.0212,0.8359
2025-01-27T11:03:35.038Z,0.6611,-0.6940,0.1234,0.0445,0.0097,0.7896
2025-01-27T11:03:35.047Z,-0.4228,0.3319,-0.0073,-0.0068,0.0044,1.0217
2025-01-27T11:03:35.056Z,-0.4228,0.3319,-0.0073,-0.0051,-0.0158,1.0244
2025-01-27T11:03:35.067Z,0.6293,-0.6202,0.0961,0.0179,0.0146,0.5816
2025-01-27T11:03:35.077Z,0.5520,-0.3272,-0.1356,0.0129,0.0332,0.7916
2025-01-27T11:03:35.087Z,-0.9977,0.7105,0.1406,0.0048,-0.0239,1.1293
2025-01-27T11:03:35.097Z,-0.2134,0.2090,-0.0503,-0.0021,0.0116,0.9674
2025-01-27T11:03:35.106Z,-0.2134,0.2090,-0.0503,0.0059,0.0309,0.7271
2025-01-27T11:03:35.117Z,-0.1362,0.1183,-0.0172,0.0162,-0.0030,0.9682
2025-01-27T11:03:35.127Z,-0.7787,0.5470,0.0678,0.0043,-0.0175,1.0893
2025-01-27T11:03:35.138Z,0.6113,-0.4377,-0.0560,-0.0033,0.0065,0.6123
2025-01-27T11:03:35.147Z,0.7186,-0.5155,-0.0770,0.0270,0.0419,0.7759
2025-01-27T11:03:35.158Z,-0.9470,0.6244,0.1686,0.0101,-0.0354,1.0540
2025-01-27T11:03:35.167Z,-0.2626,0.3237,-0.1263,-0.0157,0.0191,0.9976
2025-01-27T11:03:35.176Z,0.6526,-0.5871,0.0099,0.0254,-0.0048,0.7462
2025-01-27T11:03:35.187Z,0.0591,-0.0916,0.0128,0.0110,0.0109,0.8828
2025-01-27T11:03:35.196Z,-0.5662,0.4858,-0.0296,-0.0043,-0.0085,1.0939
2025-01-27T11:03:35.207Z,0.1207,-0.1426,0.0423,0.0050,-0.0071,0.7275
2025-01-27T11:03:35.216Z,1.0053,-0.7838,-0.0793,0.0136,0.0501,0.6584
2025-01-27T11:03:35.226Z,-0.6676,0.5440,0.0355,0.0100,-0.0215,1.1110
2025-01-27T11:03:35.237Z,-0.8902,0.6631,0.0414,-0.0050,-0.0145,1.0925
2025-01-27T11:03:35.246Z,1.0626,-0.8357,-0.0895,0.0024,0.0154,0.5734
2025-01-27T11:03:35.257Z,0.4797,-0.3703,-0.0228,0.0257,0.0302,0.9025
2025-01-27T11:03:35.266Z,-1.4578,1.0981,0.0953,0.0033,-0.0435,1.2798
2025-01-27T11:03:35.276Z,0.4505,-0.3837,-0.0345,-0.0220,0.0052,0.5641
2025-01-27T11:03:35.287Z,1.5907,-1.1204,-0.2032,0.0277,0.0760,0.7129
2025-01-27T11:03:35.296Z,-1.5247,0.9617,0.2998,0.0314,-0.0848,1.1171
2025-01-27T11:03:35.307Z,-0.2762,0.3416,-0.1731,-0.0432,0.0546,0.9764
2025-01-27T11:03:35.317Z,0.9887,-0.7006,-0.1062,0.0296,-0.0137,0.6817
2025-01-27T11:03:35.326Z,-0.2128,-0.0988,0.2384,0.0311,0.0275,0.9365
2025-01-27T11:03:35.337Z,-0.4776,0.6070,-0.1813,-0.0272,-0.0171,1.0750
2025-01-27T11:03:35.346Z,0.1146,-0.1909,0.0800,0.0139,0.0023,0.7688
2025-01-27T11:03:35.356Z,0.8580,-0.7179,-0.0210,0.0233,0.0461,0.7263
2025-01-27T11:03:35.367Z,-0.5370,0.4679,0.0216,-0.0047,-0.0347,0.9599
2025-01-27T11:03:35.376Z,-0.5232,0.4680,-0.0373,-0.0018,0.0199,1.0828
2025-01-27T11:03:35.387Z,0.3341,-0.3724,0.0604,0.0261,-0.0179,0.7879
2025-01-27T11:03:35.396Z,0.5912,-0.4672,-0.0376,0.0015,0.0465,0.7662
2025-01-27T11:03:35.406Z,-0.5617,0.5946,-0.0722,0.0026,-0.0207,1.1625
2025-01-27T11:03:35.417Z,-0.5468,0.2094,0.1862,-0.0014,0.0536,0.5382
2025-01-27T11:03:35.426Z,1.4556,-1.0332,-0.1935,-0.0014,0.0536,0.5382
2025-01-27T11:03:35.438Z,-0.3141,0.2866,0.0220,0.0016,0.0029,1.1869
2025-01-27T11:03:35.446Z,-1.1863,0.8283,0.1315,0.0016,0.0029,1.1869
2025-01-27T11:03:35.456Z,0.6499,-0.4276,-0.1367,-0.0022,-0.0002,0.7071
2025-01-27T11:03:35.467Z,0.8094,-0.6680,-0.0021,0.0081,-0.0286,1.2083
2025-01-27T11:03:35.476Z,-0.8979,0.7340,0.0482,0.0081,-0.0286,1.2083
2025-01-27T11:03:35.488Z,-0.4442,0.2783,0.0254,0.0094,0.0514,0.5123
2025-01-27T11:03:35.497Z,1.5300,-1.1683,-0.1120,0.0240,-0.0302,0.9689
2025-01-27T11:03:35.506Z,-0.4496,0.3394,0.0298,0.0240,-0.0302,0.9689
2025-01-27T11:03:35.517Z,-0.9606,0.6739,0.1256,0.0080,0.0035,0.8142
2025-01-27T11:03:35.527Z,0.6394,-0.3080,-0.2286,0.0256,0.0220,0.8798
2025-01-27T11:03:35.537Z,0.2526,-0.4380,0.1991,-0.0100,-0.0064,0.9653
2025-01-27T11:03:35.546Z,-0.2562,0.3415,-0.1195,0.0082,-0.0064,0.9854
2025-01-27T11:03:35.557Z,-0.2413,0.1829,0.0121,0.0191,0.0047,0.6427
2025-01-27T11:03:35.567Z,0.4391,-0.4641,0.0528,0.0011,0.0177,0.7579
2025-01-27T11:03:35.576Z,0.3739,-0.2192,-0.1018,0.0007,-0.0019,1.0874
2025-01-27T11:03:35.587Z,-0.6137,0.5078,0.0415,0.0196,-0.0119,1.0045
2025-01-27T11:03:35.596Z,-0.4002,0.2639,0.0183,-0.0022,0.0275,0.6446
2025-01-27T11:03:35.607Z,0.8420,-0.7012,-0.0066,0.0080,0.0196,1.0045
2025-01-27T11:03:35.617Z,0.2047,0.0265,-0.1305,0.0140,-0.0569,1.1883
2025-01-27T11:03:35.626Z,-1.3216,0.8890,0.1677,-0.0035,0.0398,0.4835
2025-01-27T11:03:35.638Z,0.9483,-0.8449,-0.0322,0.0149,0.0295,0.7484
2025-01-27T11:03:35.646Z,1.0546,-0.6225,-0.2048,0.0106,-0.0418,1.2947
2025-01-27T11:03:35.656Z,-1.7611,1.1859,0.2560,-0.0031,0.0152,0.8507
2025-01-27T11:03:35.667Z,0.0044,0.0408,-0.1319,0.0131,0.0369,0.6372
2025-01-27T11:03:35.676Z,1.4695,-1.1301,-0.0590,0.0169,-0.0221,1.1229
2025-01-27T11:03:35.687Z,-0.7560,0.5812,0.0455,-0.0073,-0.0080,1.0370
2025-01-27T11:03:35.696Z,-0.8243,0.5275,0.0626,0.0118,0.0295,0.5350
2025-01-27T11:03:35.707Z,1.2307,-0.9112,-0.1226,0.0220,0.0122,0.8942
2025-01-27T11:03:35.716Z,0.1999,-0.1647,0.0276,-0.0129,-0.0228,1.0019
2025-01-27T11:03:35.726Z,-0.9742,0.7465,0.0740,0.0107,0.0288,0.9288
2025-01-27T11:03:35.737Z,0.3035,-0.1673,-0.1600,0.0193,-0.0252,0.8376
2025-01-27T11:03:35.746Z,0.1217,-0.2902,0.1462,-0.0068,0.0302,0.8534
2025-01-27T11:03:35.757Z,0.0986,-0.0102,-0.0871,0.0033,-0.0145,1.0406
2025-01-27T11:03:35.766Z,-0.2310,0.2634,-0.0561,0.0197,-0.0018,0.8202
2025-01-27T11:03:35.776Z,-0.1750,-0.0651,0.1273,-0.0024,0.0380,0.6611
2025-01-27T11:03:35.787Z,0.9125,-0.6322,-0.0999,0.0018,-0.0021,1.0048
2025-01-27T11:03:35.796Z,-0.3424,0.3233,-0.0233,0.0174,-0.0152,1.1650
2025-01-27T11:03:35.806Z,-0.9676,0.6736,0.0633,0.0068,0.0060,0.6005
2025-01-27T11:03:35.816Z,0.6600,-0.6344,0.0293,0.0073,0.0378,0.8281
2025-01-27T11:03:35.826Z,0.7651,-0.4114,-0.1752,0.0084,-0.0369,1.2056
2025-01-27T11:03:35.837Z,-1.1887,0.8303,0.1501,0.0132,0.0087,0.7239
2025-01-27T11:03:35.846Z,0.0988,-0.1662,-0.0227,0.0020,0.0525,0.6434
2025-01-27T11:03:35.856Z,1.3573,-0.9822,-0.1089,0.0072,-0.0440,1.0662
2025-01-27T11:03:35.866Z,-0.9215,0.7524,0.0312,0.0122,0.0128,1.0554
2025-01-27T11:03:35.876Z,-0.6684,0.3730,0.0431,0.0048,0.0003,0.6854
2025-01-27T11:03:35.887Z,0.8352,-0.6313,-0.0610,0.0050,0.0176,0.8897
2025-01-27T11:03:35.896Z,0.1638,-0.1223,-0.0300,0.0043,-0.0039,1.0737
2025-01-27T11:03:35.906Z,-0.6212,0.4857,0.0269,0.0179,-0.0021,0.8468
2025-01-27T11:03:35.916Z,0.0009,-0.1265,0.0040,0.0043,0.0327,0.6797
2025-01-27T11:03:35.926Z,0.8176,-0.6733,-0.0086,0.0038,-0.0140,0.9289
2025-01-27T11:03:35.937Z,-0.2424,0.3205,-0.0566,0.0106,0.0035,1.1057
2025-01-27T11:03:35.946Z,-0.7267,0.4389,0.0780,0.0153,-0.0087,0.8293
2025-01-27T11:03:35.956Z,0.2504,-0.2565,-0.0109,0.0050,0.0343,0.7401
2025-01-27T11:03:35.967Z,0.6759,-0.5194,-0.0460,0.0039,-0.0035,1.1254
2025-01-27T11:03:35.976Z,-0.4392,0.4753,-0.0527,0.0125,-0.0302,0.9291
2025-01-27T11:03:35.987Z,-0.6476,0.2723,0.1153,0.0097,0.0469,0.5223
2025-01-27T11:03:35.996Z,1.2775,-1.0001,-0.0873,-0.0056,-0.0158,0.9171
2025-01-27T11:03:36.006Z,-0.0505,0.2090,-0.0891,0.0093,-0.0049,1.2057
2025-01-27T11:03:36.016Z,-1.2811,0.8585,0.1273,0.0169,0.0053,0.7074
2025-01-27T11:03:36.026Z,0.5691,-0.5101,-0.0025,-0.0052,0.0453,0.7753
2025-01-27T11:03:36.037Z,0.9084,-0.6198,-0.0901,-0.0005,-0.0263,1.1476
2025-01-27T11:03:36.046Z,-0.8997,0.7656,0.0457,0.0243,-0.0047,0.9176
2025-01-27T11:03:36.056Z,-0.3698,0.0788,0.0800,0.0009,0.0295,0.5519
2025-01-27T11:03:36.067Z,1.1955,-0.9012,-0.0521,-0.0046,-0.0168,0.9287
2025-01-27T11:03:36.076Z,-0.2852,0.4097,-0.1143,0.0137,0.0127,1.0214
2025-01-27T11:03:36.087Z,-0.7087,0.3667,0.1512,0.0192,-0.0023,0.9142
2025-01-27T11:03:36.096Z,0.2695,-0.1585,-0.0853,-0.0102,0.0140,0.8216
2025-01-27T11:03:36.106Z,0.2338,-0.2786,0.0336,0.0175,0.0112,0.9286
2025-01-27T11:03:36.116Z,0.0998,0.0740,-0.0921,0.0122,-0.0254,1.0386
2025-01-27T11:03:36.126Z,-0.5370,0.2542,0.0986,0.0064,0.0129,0.6483
2025-01-27T11:03:36.137Z,0.3362,-0.3193,-0.0043,0.0071,0.0162,0.7428
2025-01-27T11:03:36.146Z,0.6575,-0.3516,-0.1270,0.0004,-0.0026,1.0634
2025-01-27T11:03:36.156Z,-0.7092,0.4835,0.0914,0.0175,-0.0055,1.0227
2025-01-27T11:03:36.167Z,-0.4168,0.2800,-0.0292,0.0054,0.0205,0.7004
2025-01-27T11:03:36.176Z,0.6868,-0.6548,0.0336,0.0004,0.0204,0.9320
2025-01-27T11:03:36.187Z,0.2838,-0.0224,-0.1381,0.0040,-0.0385,1.1894
2025-01-27T11:03:36.196Z,-1.0755,0.7277,0.0889,0.0251,0.0084,0.5753
2025-01-27T11:03:36.206Z,0.4627,-0.5901,0.0462,0.0005,0.0519,0.6936
2025-01-27T11:03:36.216Z,1.2274,-0.7139,-0.1907,-0.0095,-0.0419,1.2482
2025-01-27T11:03:36.226Z,-1.3963,1.1050,0.0696,0.0387,-0.0009,0.9365
2025-01-27T11:03:36.237Z,-0.4302,0.0593,0.0826,0.0026,0.0263,0.5878
2025-01-27T11:03:36.246Z,1.4139,-1.0599,-0.0883,-0.0163,0.0019,1.0449
2025-01-27T11:03:36.256Z,-0.3073,0.4622,-0.1102,0.0275,-0.0228,1.1464
2025-01-27T11:03:36.266Z,-1.1143,0.6733,0.1376,0.0191,0.0198,0.5325
2025-01-27T11:03:36.276Z,0.9222,-0.9508,0.0683,-0.0238,0.0412,0.7833
2025-01-27T11:03:36.287Z,0.8336,-0.3194,-0.2430,0.0035,-0.0319,1.1450
2025-01-27T11:03:36.296Z,-1.2778,0.9173,0.1346,0.0414,0.0098,0.9054
2025-01-27T11:03:36.306Z,-0.1255,-0.1665,0.0720,-0.0180,0.0164,0.7037
2025-01-27T11:03:36.316Z,0.9258,-0.6144,-0.1063,-0.0025,0.0030,0.9631
2025-01-27T11:03:36.326Z,-0.2815,0.3920,-0.0962,0.0307,-0.0023,1.0433
2025-01-27T11:03:36.337Z,-0.5078,0.1721,0.1327,-0.0025,-0.0041,0.7540
2025-01-27T11:03:36.346Z,0.2990,-0.2805,-0.0250,-0.0035,0.0388,0.7315
2025-01-27T11:03:36.356Z,0.6788,-0.3860,-0.1035,0.0153,-0.0148,0.9686
2025-01-27T11:03:36.366Z,-0.3845,0.3220,0.0403,0.0117,0.0028,1.0882
2025-01-27T11:03:36.376Z,-0.6043,0.3132,0.0393,0.0035,-0.0039,0.7503
2025-01-27T11:03:36.387Z,0.3365,-0.2695,-0.0481,0.0109,0.0323,0.7471
2025-01-27T11:03:36.396Z,0.6842,-0.4755,-0.0478,-0.0003,-0.0077,1.2333
2025-01-27T11:03:36.406Z,-0.6806,0.6312,-0.0225,0.0110,-0.0420,0.8150
2025-01-27T11:03:36.416Z,-0.5932,0.1317,0.1297,0.0215,0.0959,0.5742
2025-01-27T11:03:36.426Z,1.7056,-1.2558,-0.0998,-0.0291,-0.0571,1.0197
2025-01-27T11:03:36.437Z,-0.5869,0.7825,-0.1046,0.0303,0.0142,1.0818
2025-01-27T11:03:36.446Z,-1.0827,0.4545,0.1261,0.0265,0.0025,0.7373
2025-01-27T11:03:36.456Z,0.8503,-0.5983,0.0100,-0.0285,0.0168,0.8177
2025-01-27T11:03:36.466Z,0.3142,-0.1979,-0.0929,0.0211,0.0083,1.1700
2025-01-27T11:03:36.476Z,-0.5751,0.6414,-0.0318,0.0251,-0.0432,0.8215
2025-01-27T11:03:36.487Z,-0.3500,-0.1643,0.2187,-0.0047,0.0657,0.6037
2025-01-27T11:03:36.496Z,1.2564,-0.8557,-0.1635,-0.0138,-0.0302,0.9695
2025-01-27T11:03:36.506Z,-0.3226,0.5724,-0.1119,0.0341,0.0010,1.0903
2025-01-27T11:03:36.516Z,-0.9940,0.3466,0.2146,0.0065,0.0077,0.8066
2025-01-27T11:03:36.526Z,0.5804,-0.3368,-0.0611,-0.0195,0.0142,0.7730
2025-01-27T11:03:36.537Z,0.4908,-0.2975,-0.1038,0.0260,0.0156,1.1203
2025-01-27T11:03:36.546Z,-0.3853,0.3731,0.0102,0.0089,-0.0477,0.9307
2025-01-27T11:03:36.556Z,-0.6230,0.1667,0.1534,0.0049,0.0525,0.5382
2025-01-27T11:03:36.567Z,1.0960,-0.8608,-0.1067,-0.0055,-0.0067,0.8822
2025-01-27T11:03:36.576Z,0.1390,0.2400,-0.1367,0.0149,-0.0104,1.1552
2025-01-27T11:03:36.587Z,-1.1970,0.5627,0.1892,0.0235,-0.0035,0.8098
2025-01-27T11:03:36.596Z,0.2675,-0.2281,-0.0446,-0.0101,0.0332,0.7174
2025-01-27T11:03:36.606Z,0.8775,-0.6402,-0.0712,0.0060,0.0065,1.1275
2025-01-27T11:03:36.616Z,-0.4758,0.5817,-0.0754,0.0231,-0.0396,0.9855
2025-01-27T11:03:36.626Z,-0.7681,0.2792,0.1574,0.0094,0.0439,0.5107
2025-01-27T11:03:36.637Z,1.1204,-0.9289,-0.0420,-0.0144,0.0045,0.8666
2025-01-27T11:03:36.646Z,0.2961,0.1442,-0.1910,0.0178,-0.0162,1.1186
2025-01-27T11:03:36.656Z,-1.1366,0.5856,0.1686,0.0277,0.0084,0.9173
2025-01-27T11:03:36.666Z,0.0930,-0.1469,0.0302,-0.0246,0.0145,0.7134
2025-01-27T11:03:36.676Z,0.7253,-0.5122,-0.0830,0.0130,0.0251,1.0386
2025-01-27T11:03:36.687Z,-0.0876,0.2264,-0.0775,0.0196,-0.0491,1.0716
2025-01-27T11:03:36.696Z,-0.8982,0.4590,0.1796,0.0039,0.0262,0.5616
2025-01-27T11:03:36.706Z,0.7213,-0.7409,-0.0131,-0.0052,0.0363,0.8259
2025-01-27T11:03:36.716Z,0.7607,-0.1538,-0.2141,0.0050,-0.0349,1.0437
2025-01-27T11:03:36.726Z,-1.1142,0.5623,0.1956,0.0351,0.0219,0.9689
2025-01-27T11:03:36.737Z,-0.0974,-0.0249,0.0044,-0.0167,-0.0073,0.7436
2025-01-27T11:03:36.746Z,0.6232,-0.4381,-0.0550,0.0124,0.0280,0.9074
2025-01-27T11:03:36.756Z,0.0711,0.0450,-0.0632,0.0171,-0.0195,1.1516
2025-01-27T11:03:36.766Z,-0.6742,0.4334,0.0732,0.0015,-0.0161,0.6506
2025-01-27T11:03:36.776Z,0.0767,-0.3346,0.0697,0.0131,0.0727,0.6699
2025-01-27T11:03:36.787Z,1.2633,-0.6782,-0.1702,-0.0103,-0.0318,1.1496
2025-01-27T11:03:36.796Z,-0.8885,0.7647,0.0395,0.0280,-0.0212,1.0630
2025-01-27T11:03:36.806Z,-0.9503,0.3710,0.1355,0.0095,0.0224,0.6045
2025-01-27T11:03:36.816Z,1.2266,-0.9075,-0.0558,-0.0251,0.0129,0.9083
2025-01-27T11:03:36.826Z,0.2327,0.0989,-0.1675,0.0245,-0.0184,1.1393
2025-01-27T11:03:36.837Z,-1.0494,0.6082,0.1337,0.0246,-0.0079,0.6826
2025-01-27T11:03:36.846Z,0.2767,-0.4645,0.1214,-0.0251,0.0561,0.6802
2025-01-27T11:03:36.857Z,1.0987,-0.5784,-0.2106,0.0064,-0.0160,1.0939
2025-01-27T11:03:36.866Z,-0.7333,0.6934,-0.0135,0.0332,-0.0233,1.0215
2025-01-27T11:03:36.876Z,-0.8367,0.2122,0.2048,-0.0101,0.0365,0.6359
2025-01-27T11:03:36.888Z,0.2633,0.0976,-0.1709,-0.0048,0.0113,0.9194
2025-01-27T11:03:36.896Z,0.2633,0.0976,-0.1709,0.0315,-0.0191,1.0976
2025-01-27T11:03:36.906Z,-0.9069,0.3742,0.2173,0.0030,-0.0014,0.7655
2025-01-27T11:03:36.916Z,0.1806,-0.2322,0.0024,-0.0114,0.0431,0.6991
2025-01-27T11:03:36.926Z,0.9172,-0.5237,-0.1438,0.0173,-0.0118,0.9803
2025-01-27T11:03:36.938Z,-0.8147,0.4076,0.0947,0.0119,-0.0110,1.1310
2025-01-27T11:03:36.946Z,-0.8147,0.4076,0.0947,-0.0010,-0.0027,0.7265
2025-01-27T11:03:36.956Z,0.4159,-0.3258,-0.0615,0.0115,0.0395,0.7893
2025-01-27T11:03:36.967Z,-0.7300,0.5801,0.0282,0.0026,-0.0122,1.1569
2025-01-27T11:03:36.977Z,-0.4687,0.1028,0.0797,0.0140,-0.0270,0.8486
2025-01-27T11:03:36.988Z,1.3041,-0.9512,-0.0697,0.0141,0.0601,0.6155
2025-01-27T11:03:36.997Z,-0.2492,0.4720,-0.1359,-0.0157,-0.0149,0.9435
2025-01-27T11:03:37.006Z,-0.2492,0.4720,-0.1359,0.0254,-0.0124,1.1005
2025-01-27T11:03:37.017Z,0.4065,-0.3091,0.0077,0.0167,0.0091,0.8000
2025-01-27T11:03:37.027Z,0.6592,-0.3828,-0.1010,-0.0173,0.0217,0.7604
2025-01-27T11:03:37.037Z,-0.4344,0.3777,0.0046,0.0232,0.0125,1.1000
2025-01-27T11:03:37.046Z,-0.6322,0.1958,0.1546,0.0149,-0.0422,0.9585
2025-01-27T11:03:37.058Z,1.0270,-0.8253,-0.0894,-0.0117,0.0359,0.5478
2025-01-27T11:03:37.067Z,0.2762,0.1751,-0.1797,0.0032,0.0194,0.8820
2025-01-27T11:03:37.076Z,-1.1964,0.5472,0.2405,0.0140,-0.0378,1.1271
2025-01-27T11:03:37.088Z,0.1106,-0.1161,-0.0419,0.0121,0.0150,0.8604
2025-01-27T11:03:37.096Z,0.8851,-0.5202,-0.0966,-0.0057,0.0351,0.7843
2025-01-27T11:03:37.107Z,-0.3837,0.2725,0.0196,0.0123,-0.0007,1.0186
2025-01-27T11:03:37.117Z,-0.6090,0.3053,0.0755,0.0165,-0.0177,1.0188
2025-01-27T11:03:37.127Z,0.6941,-0.6176,-0.0266,-0.0002,0.0097,0.5536
2025-01-27T11:03:37.138Z,0.4584,-0.1011,-0.1636,0.0047,0.0301,0.8185
2025-01-27T11:03:37.146Z,-0.8845,0.4916,0.1449,0.0086,-0.0248,1.0701
2025-01-27T11:03:37.157Z,-0.2476,0.0887,0.0086,0.0102,0.0014,0.9540
2025-01-27T11:03:37.166Z,0.8126,-0.5606,-0.0693,0.0023,0.0227,0.6895
2025-01-27T11:03:37.176Z,0.0174,0.0874,-0.0542,0.0083,0.0256,1.0305
2025-01-27T11:03:37.188Z,-1.0126,0.6291,0.0855,0.0103,-0.0463,1.1065
2025-01-27T11:03:37.196Z,0.6972,-0.7955,0.0551,0.0076,0.0140,0.5243
2025-01-27T11:03:37.207Z,0.9239,-0.2590,-0.2474,-0.0011,0.0535,0.8226
2025-01-27T11:03:37.216Z,-1.2085,0.7076,0.1768,0.0060,-0.0440,1.0903
2025-01-27T11:03:37.226Z,-0.2981,0.0223,0.0614,0.0271,0.0139,0.9750
2025-01-27T11:03:37.237Z,0.9151,-0.5543,-0.1188,-0.0092,0.0169,0.7193
2025-01-27T11:03:37.246Z,-0.0224,0.0494,-0.0410,0.0059,0.0181,0.9763
2025-01-27T11:03:37.256Z,-0.8865,0.5552,0.0962,0.0256,-0.0275,1.1306
2025-01-27T11:03:37.266Z,0.4658,-0.6079,0.0495,-0.0050,-0.0054,0.5733
2025-01-27T11:03:37.276Z,1.0213,-0.4212,-0.2436,0.0018,0.0733,0.7954
2025-01-27T11:03:37.287Z,-1.0385,0.6385,0.1583,0.0142,-0.0504,1.0462
2025-01-27T11:03:37.296Z,-0.4259,0.0857,0.0866,0.0140,0.0102,0.9838
2025-01-27T11:03:37.306Z,0.8317,-0.4144,-0.1553,-0.0040,0.0100,0.7348
2025-01-27T11:03:37.317Z,0.0245,-0.0828,0.0251,0.0157,0.0000,1.1347
2025-01-27T11:03:37.326Z,-0.6607,0.4625,0.0356,0.0157,0.0000,1.1347
2025-01-27T11:03:37.337Z,0.0445,-0.1708,0.0215,0.0085,0.0692,0.6352
2025-01-27T11:03:37.346Z,1.1268,-0.7867,-0.0921,0.0085,0.0692,0.6352
2025-01-27T11:03:37.356Z,-0.5560,0.5910,-0.0271,0.0064,0.0005,1.1272
2025-01-27T11:03:37.367Z,-1.1715,0.5431,0.1616,0.0116,0.0381,0.6064
2025-01-27T11:03:37.376Z,1.1112,-0.8471,-0.0605,0.0116,0.0381,0.6064
2025-01-27T11:03:37.388Z,0.4836,-0.0611,-0.1646,0.0117,-0.0349,1.1617
2025-01-27T11:03:37.397Z,-1.2220,0.6439,0.1563,0.0138,-0.0069,0.7105
2025-01-27T11:03:37.407Z,0.1759,-0.2796,0.0346,-0.0041,0.0657,0.6653
2025-01-27T11:03:37.417Z,1.2883,-0.7768,-0.1475,0.0136,-0.0258,1.0328
2025-01-27T11:03:37.427Z,-0.7003,0.6138,-0.0085,0.0195,-0.0194,1.0786
2025-01-27T11:03:37.437Z,-0.9067,0.3739,0.1804,-0.0065,0.0150,0.6646
2025-01-27T11:03:37.446Z,0.7951,-0.5010,-0.1314,0.0081,0.0292,0.8446
2025-01-27T11:03:37.457Z,0.5517,-0.2884,-0.1067,0.0171,-0.0194,1.2203
2025-01-27T11:03:37.467Z,-1.0289,0.6589,0.0957,-0.0036,-0.0309,0.7397
2025-01-27T11:03:37.477Z,-0.1770,-0.0747,0.0590,0.0059,0.0815,0.6477
2025-01-27T11:03:37.488Z,1.4937,-0.9510,-0.1662,0.0129,-0.0313,1.0187
2025-01-27T11:03:37.496Z,-0.6443,0.6212,-0.0310,0.0056,-0.0190,1.0474
2025-01-27T11:03:37.507Z,-0.9766,0.3452,0.2027,0.0037,0.0265,0.8082
2025-01-27T11:03:37.517Z,0.7125,-0.2965,-0.1895,0.0139,-0.0000,0.8163
2025-01-27T11:03:37.526Z,0.3611,-0.3288,0.0390,0.0104,0.0129,1.0661
2025-01-27T11:03:37.538Z,-0.4455,0.2657,0.0409,0.0045,-0.0284,0.9441
2025-01-27T11:03:37.546Z,-0.3729,0.2793,-0.0191,0.0068,0.0165,0.5892
2025-01-27T11:03:37.557Z,0.8125,-0.7721,0.0692,0.0055,0.0225,0.8659
2025-01-27T11:03:37.567Z,0.2533,0.0705,-0.1743,0.0111,-0.0331,1.0901
2025-01-27T11:03:37.576Z,-0.9942,0.5349,0.1737,0.0020,0.0105,0.8736
2025-01-27T11:03:37.587Z,-0.0084,-0.0385,-0.0201,0.0025,0.0288,0.7331
2025-01-27T11:03:37.596Z,0.8637,-0.5666,-0.0961,0.0147,0.0104,1.0997
2025-01-27T11:03:37.606Z,-0.3640,0.2717,-0.0031,0.0071,-0.0425,0.9761
2025-01-27T11:03:37.617Z,-0.7948,0.4627,0.0926,0.0001,0.0336,0.5185
2025-01-27T11:03:37.626Z,1.0366,-0.8710,-0.0371,0.0146,0.0403,0.8738
2025-01-27T11:03:37.637Z,0.4688,-0.0748,-0.1772,0.0130,-0.0503,1.2100
2025-01-27T11:03:37.646Z,-1.4483,0.8372,0.2082,-0.0036,0.0004,0.8024
2025-01-27T11:03:37.656Z,0.0329,-0.1267,-0.0010,0.0123,0.0659,0.7280
2025-01-27T11:03:37.666Z,1.3470,-0.7947,-0.1695,0.0163,-0.0246,1.0954
2025-01-27T11:03:37.676Z,-0.6974,0.4552,0.0537,-0.0040,-0.0249,1.0061
2025-01-27T11:03:37.687Z,-0.8335,0.4032,0.1136,0.0008,0.0307,0.5316
2025-01-27T11:03:37.696Z,1.0937,-0.7467,-0.1140,0.0178,0.0212,0.8703
2025-01-27T11:03:37.706Z,0.3244,-0.1172,-0.0900,0.0067,-0.0343,1.0832
2025-01-27T11:03:37.716Z,-1.1001,0.6084,0.1492,-0.0001,0.0113,0.8988
2025-01-27T11:03:37.726Z,0.0048,0.0034,-0.0557,0.0134,0.0247,0.7246
2025-01-27T11:03:37.737Z,0.8252,-0.6237,-0.0140,0.0064,0.0143,1.0568
2025-01-27T11:03:37.746Z,-0.2561,0.1793,-0.0002,0.0051,-0.0397,1.0610
2025-01-27T11:03:37.756Z,-0.8569,0.5673,0.0355,0.0037,0.0163,0.5733
2025-01-27T11:03:37.766Z,0.7574,-0.7285,0.0250,0.0054,0.0531,0.8153
2025-01-27T11:03:37.776Z,0.7522,-0.3146,-0.2009,0.0184,-0.0436,1.1021
2025-01-27T11:03:37.787Z,-1.1618,0.6894,0.1585,-0.0026,0.0090,0.9691
2025-01-27T11:03:37.796Z,-0.2851,0.1415,0.0001,0.0102,0.0161,0.6943
2025-01-27T11:03:37.806Z,0.9867,-0.6353,-0.1243,0.0217,0.0148,0.9673
2025-01-27T11:03:37.816Z,-0.0541,-0.0179,0.0366,-0.0012,-0.0254,1.1458
2025-01-27T11:03:37.826Z,-0.9506,0.6733,0.0226,-0.0020,-0.0025,0.5974
2025-01-27T11:03:37.837Z,0.4669,-0.4913,0.0250,0.0119,0.0812,0.7640
2025-01-27T11:03:37.846Z,1.0727,-0.6278,-0.1678,0.0199,-0.0469,1.0444
2025-01-27T11:03:37.856Z,-1.0029,0.6398,0.1159,-0.0091,0.0063,1.0057
2025-01-27T11:03:37.866Z,-0.5249,0.2644,0.0723,0.0107,0.0143,0.7424
2025-01-27T11:03:37.876Z,0.8096,-0.4668,-0.1618,0.0202,0.0043,0.8656
2025-01-27T11:03:37.887Z,0.0454,-0.1555,0.0856,-0.0054,0.0041,1.0702
2025-01-27T11:03:37.896Z,-0.5181,0.3973,-0.0190,0.0076,-0.0243,0.7799
2025-01-27T11:03:37.906Z,-0.0371,-0.0096,0.0059,0.0141,0.0496,0.6581
2025-01-27T11:03:37.917Z,0.8818,-0.7230,-0.0009,0.0104,0.0067,1.0227
2025-01-27T11:03:37.926Z,-0.2601,0.3092,-0.1034,0.0081,-0.0367,1.1361
2025-01-27T11:03:37.937Z,-1.0988,0.6668,0.1358,-0.0053,0.0167,0.6395
2025-01-27T11:03:37.946Z,0.6329,-0.5244,-0.0215,0.0140,0.0447,0.7993
2025-01-27T11:03:37.956Z,0.9152,-0.5452,-0.1407,0.0203,-0.0334,1.2684
2025-01-27T11:03:37.966Z,-1.1931,0.7839,0.1209,-0.0165,-0.0306,0.7288
2025-01-27T11:03:37.976Z,-0.2830,0.0246,0.1005,-0.0007,0.0962,0.6439
2025-01-27T11:03:37.987Z,1.7419,-1.1124,-0.2274,0.0475,-0.0490,1.0321
2025-01-27T11:03:37.996Z,-0.7966,0.5704,0.0767,-0.0224,-0.0065,1.0259
2025-01-27T11:03:38.006Z,-0.9574,0.4385,0.2026,-0.0075,0.0240,0.7821
2025-01-27T11:03:38.016Z,0.8424,-0.3088,-0.3508,0.0516,-0.0029,0.8132
2025-01-27T11:03:38.026Z,0.2453,-0.4705,0.2427,-0.0239,0.0246,1.1534
2025-01-27T11:03:38.037Z,-0.5514,0.4815,-0.0721,0.0041,-0.0466,0.8352
2025-01-27T11:03:38.046Z,-0.3170,0.2568,-0.0556,0.0242,0.0577,0.6104
2025-01-27T11:03:38.056Z,1.1095,-1.0220,0.0951,0.0025,-0.0045,0.9416
2025-01-27T11:03:38.066Z,-0.1041,0.3216,-0.2007,0.0072,-0.0326,1.1198
2025-01-27T11:03:38.076Z,-1.1431,0.6417,0.2295,-0.0001,0.0208,0.8263
2025-01-27T11:03:38.087Z,0.4021,-0.2254,-0.1067,0.0138,0.0189,0.7074
2025-01-27T11:03:38.096Z,0.7850,-0.6098,-0.0345,0.0134,0.0160,1.1518
2025-01-27T11:03:38.106Z,-0.5351,0.3819,0.0080,-0.0001,-0.0555,0.9603
2025-01-27T11:03:38.116Z,-0.7802,0.5089,0.0432,-0.0063,0.0455,0.4949
2025-01-27T11:03:38.126Z,1.2498,-1.0044,-0.0072,0.0219,0.0190,0.9226
2025-01-27T11:03:38.137Z,0.2309,0.0250,-0.1906,0.0171,-0.0511,1.1262
2025-01-27T11:03:38.146Z,-1.4490,0.7542,0.3331,-0.0318,0.0342,0.7867
2025-01-27T11:03:38.156Z,0.4322,-0.1655,-0.2164,0.0381,0.0290,0.8073
2025-01-27T11:03:38.166Z,0.8471,-0.5947,-0.0359,0.0198,-0.0119,1.0623
2025-01-27T11:03:38.176Z,-0.7165,0.2988,0.1971,-0.0288,-0.0058,0.9703
2025-01-27T11:03:38.187Z,-0.3465,0.4038,-0.1469,0.0259,0.0120,0.5690
2025-01-27T11:03:38.196Z,0.7702,-0.6643,0.0200,0.0174,0.0187,0.8378
2025-01-27T11:03:38.206Z,0.2430,-0.2020,-0.0353,-0.0074,-0.0161,1.0804
2025-01-27T11:03:38.216Z,-0.8148,0.5848,0.0342,0.0069,0.0012,0.9798
2025-01-27T11:03:38.226Z,-0.2311,0.1648,-0.0316,0.0167,0.0283,0.7540
2025-01-27T11:03:38.237Z,0.7470,-0.6616,0.0388,-0.0004,0.0114,0.9192
2025-01-27T11:03:38.246Z,0.0641,-0.0211,-0.0857,0.0140,-0.0231,1.1144
2025-01-27T11:03:38.256Z,-0.7776,0.5622,0.0561,-0.0004,-0.0044,0.6294
2025-01-27T11:03:38.266Z,0.3031,-0.3600,0.0471,-0.0030,0.0517,0.7243
2025-01-27T11:03:38.276Z,0.9827,-0.5817,-0.1968,0.0350,-0.0271,1.1347
2025-01-27T11:03:38.287Z,-0.9432,0.5848,0.1270,-0.0175,-0.0097,0.9885
2025-01-27T11:03:38.296Z,-0.6244,0.3641,0.0592,-0.0007,0.0243,0.6429
2025-01-27T11:03:38.306Z,1.1351,-0.7331,-0.1966,0.0431,0.0172,0.9977
2025-01-27T11:03:38.316Z,0.0029,-0.1123,0.0540,-0.0083,-0.0397,1.1511
2025-01-27T11:03:38.326Z,-1.1563,0.7868,0.0704,-0.0199,0.0165,0.5663
2025-01-27T11:03:38.337Z,0.7032,-0.5004,-0.0928,0.0369,0.0608,0.7674
2025-01-27T11:03:38.346Z,0.9922,-0.6606,-0.0921,0.0262,-0.0427,1.1087
2025-01-27T11:03:38.356Z,-1.1975,0.6405,0.2168,-0.0379,0.0083,1.0026
2025-01-27T11:03:38.366Z,-0.3758,0.4243,-0.1130,0.0275,0.0026,0.6757
2025-01-27T11:03:38.376Z,0.9211,-0.6944,-0.0483,0.0231,0.0250,0.8924
2025-01-27T11:03:38.387Z,0.1155,-0.2382,0.1239,-0.0173,-0.0201,1.1848
2025-01-27T11:03:38.396Z,-0.9042,0.8154,-0.1164,0.0111,-0.0171,0.6617
2025-01-27T11:03:38.406Z,0.1202,-0.2505,0.1052,0.0107,0.0890,0.6789
2025-01-27T11:03:38.416Z,1.3472,-0.9694,-0.1356,0.0231,-0.0483,1.0636
2025-01-27T11:03:38.426Z,-0.9319,0.6285,0.0493,-0.0165,0.0061,1.0639
2025-01-27T11:03:38.437Z,-0.7983,0.5330,0.1061,0.0057,0.0098,0.6587
2025-01-27T11:03:38.446Z,0.9524,-0.5609,-0.2126,0.0290,0.0229,0.8677
2025-01-27T11:03:38.456Z,0.2568,-0.3418,0.1158,-0.0038,-0.0126,1.1773
2025-01-27T11:03:38.466Z,-0.8847,0.6768,-0.0361,-0.0026,-0.0199,0.7201
2025-01-27T11:03:38.476Z,0.0421,-0.1118,0.0348,0.0146,0.0661,0.6362
2025-01-27T11:03:38.487Z,1.2530,-0.9054,-0.1131,0.0284,-0.0321,1.0607
2025-01-27T11:03:38.496Z,-0.6980,0.4468,0.0505,-0.0158,-0.0103,1.1183
2025-01-27T11:03:38.506Z,-0.9948,0.7109,0.0815,0.0021,0.0172,0.6474
2025-01-27T11:03:38.516Z,0.8930,-0.5989,-0.1508,0.0302,0.0297,0.8260
2025-01-27T11:03:38.526Z,0.5686,-0.5370,0.0525,0.0046,-0.0216,1.2352
2025-01-27T11:03:38.536Z,-1.0786,0.7941,0.0269,-0.0141,-0.0263,0.7635
2025-01-27T11:03:38.546Z,-0.1887,0.0866,0.0137,0.0078,0.0720,0.5779
2025-01-27T11:03:38.556Z,1.5562,-1.1232,-0.1447,0.0375,-0.0337,1.0520
2025-01-27T11:03:38.566Z,-0.6795,0.4309,0.0380,-0.0193,-0.0137,1.1144
2025-01-27T11:03:38.576Z,-1.1840,0.7850,0.1252,-0.0058,0.0225,0.6658
2025-01-27T11:03:38.587Z,1.0090,-0.5944,-0.2299,0.0435,0.0214,0.8754
2025-01-27T11:03:38.596Z,0.4121,-0.4527,0.0866,-0.0039,-0.0161,1.1106
2025-01-27T11:03:38.606Z,-0.9251,0.5922,0.0622,-0.0168,-0.0053,0.8505
2025-01-27T11:03:38.616Z,0.0455,0.0977,-0.1279,0.0297,0.0224,0.6374
2025-01-27T11:03:38.626Z,0.9008,-0.7997,0.0608,0.0103,-0.0091,0.8873
2025-01-27T11:03:38.637Z,-0.2607,0.1536,-0.0236,-0.0094,0.0017,1.0957
2025-01-27T11:03:38.646Z,-0.7416,0.5672,0.0131,0.0112,-0.0011,0.8837
2025-01-27T11:03:38.656Z,0.1088,-0.0684,-0.0510,0.0122,0.0334,0.7011
2025-01-27T11:03:38.666Z,0.7157,-0.6513,0.0777,0.0031,0.0147,1.0884
2025-01-27T11:03:38.676Z,-0.2111,0.2650,-0.1213,0.0132,-0.0554,1.0563
2025-01-27T11:03:38.687Z,-1.0385,0.6470,0.1441,-0.0061,0.0504,0.4532
2025-01-27T11:03:38.696Z,1.1828,-0.9439,-0.0361,0.0199,0.0062,0.8478
2025-01-27T11:03:38.706Z,0.4861,-0.1909,-0.2204,0.0242,-0.0304,1.1863
2025-01-27T11:03:38.716Z,-1.5470,0.8474,0.3617,-0.0288,0.0162,0.8478
2025-01-27T11:03:38.726Z,0.2556,0.0208,-0.2736,0.0311,0.0222,0.6631
2025-01-27T11:03:38.738Z,-0.4794,0.2631,0.0384,0.0218,0.0133,1.1254
2025-01-27T11:03:38.746Z,-0.4794,0.2631,0.0384,-0.0110,-0.0535,1.0676
2025-01-27T11:03:38.756Z,-0.9580,0.7291,-0.0010,-0.0060,0.0537,0.4558
2025-01-27T11:03:38.766Z,1.1960,-0.9312,-0.0362,0.0270,0.0181,0.8524
2025-01-27T11:03:38.776Z,0.5786,-0.3426,-0.1350,0.0119,-0.0414,1.2276
2025-01-27T11:03:38.788Z,0.2731,-0.0197,-0.2133,-0.0309,0.0236,0.8215
2025-01-27T11:03:38.796Z,0.2731,-0.0197,-0.2133,0.0328,0.0291,0.7336
2025-01-27T11:03:38.806Z,1.1399,-0.9095,0.0115,0.0179,-0.0160,1.0899
2025-01-27T11:03:38.816Z,-0.7628,0.4034,0.0975,-0.0223,-0.0131,0.9973
2025-01-27T11:03:38.826Z,-0.5828,0.4923,-0.0404,0.0120,0.0225,0.5907
2025-01-27T11:03:38.838Z,0.2570,-0.2426,0.0280,0.0281,0.0185,0.8531
2025-01-27T11:03:38.846Z,0.2570,-0.2426,0.0280,-0.0036,-0.0181,1.0135
2025-01-27T11:03:38.856Z,-0.8842,0.5784,0.0876,-0.0066,0.0166,0.9753
2025-01-27T11:03:38.867Z,0.3687,-0.4818,0.1032,0.0308,-0.0122,0.7700
2025-01-27T11:03:38.876Z,0.3687,-0.4818,0.1032,-0.0050,0.0275,0.8667
2025-01-27T11:03:38.888Z,-0.5978,0.5237,-0.0296,0.0060,-0.0208,1.1275
2025-01-27T11:03:38.897Z,-0.0254,-0.1471,0.1257,0.0115,-0.0061,0.7368
2025-01-27T11:03:38.906Z,-0.0254,-0.1471,0.1257,-0.0057,0.0664,0.6118
2025-01-27T11:03:38.917Z,-0.7620,0.5176,0.0436,0.0221,-0.0260,1.1220
2025-01-27T11:03:38.927Z,-1.0712,0.7014,0.0958,0.0011,-0.0205,1.1385
2025-01-27T11:03:38.938Z,1.1630,-0.8458,-0.1126,-0.0036,0.0191,0.5383
2025-01-27T11:03:38.946Z,0.5053,-0.3276,-0.0469,0.0167,0.0289,0.8669
2025-01-27T11:03:38.958Z,-1.4637,0.9447,0.1699,0.0158,-0.0380,1.2780
2025-01-27T11:03:38.967Z,0.2643,-0.2268,-0.0374,-0.0155,0.0030,0.6437
2025-01-27T11:03:38.976Z,1.6572,-1.1261,-0.1629,0.0174,0.0797,0.6145
2025-01-27T11:03:38.988Z,-1.3107,0.8022,0.1575,0.0282,-0.0673,1.1549
2025-01-27T11:03:38.996Z,-0.3338,0.0502,0.0653,-0.0263,-0.0808,0.1078
2025-01-27T11:03:39.007Z,3.8054,-2.6748,-0.2494,-0.0269,0.1343,-0.7950
2025-01-27T11:03:39.017Z,-0.8576,0.7337,-0.1528,0.0512,-0.0317,0.4338
2025-01-27T11:03:39.026Z,-2.8012,1.4055,0.6603,-0.0086,-0.1063,0.2246
2025-01-27T11:03:39.038Z,2.8134,-1.4784,-0.6367,-0.0457,0.1296,-0.4711
2025-01-27T11:03:39.046Z,-0.0572,0.0561,0.0494,0.0453,-0.0530,0.2152
2025-01-27T11:03:39.057Z,-2.0684,0.9978,0.4450,0.0017,-0.0499,0.2021
2025-01-27T11:03:39.066Z,1.8716,-0.9129,-0.4804,-0.0450,0.0686,-0.3553
2025-01-27T11:03:39.076Z,-0.0174,-0.0087,0.0897,0.0404,-0.0252,0.1629
2025-01-27T11:03:39.088Z,-1.4661,0.7382,0.2874,0.0077,-0.0476,0.1539
2025-01-27T11:03:39.096Z,1.3492,-0.6713,-0.3204,-0.0404,0.0573,-0.2759
2025-01-27T11:03:39.107Z,0.0209,0.0163,-0.0055,0.0316,-0.0208,0.1454
2025-01-27T11:03:39.116Z,-1.1683,0.5392,0.3106,0.0122,-0.0375,0.1023
2025-01-27T11:03:39.126Z,1.1534,-0.5211,-0.3146,-0.0413,0.0502,-0.2201
2025-01-27T11:03:39.138Z,-0.1221,0.0886,0.0211,0.0254,-0.0268,0.1337
2025-01-27T11:03:39.146Z,-0.8569,0.3468,0.2325,0.0097,-0.0216,0.0632
2025-01-27T11:03:39.156Z,1.0044,-0.4546,-0.2764,-0.0295,0.0365,-0.1750
2025-01-27T11:03:39.166Z,-0.2309,0.1671,0.0575,0.0193,-0.0243,0.1261
2025-01-27T11:03:39.176Z,-0.5886,0.2530,0.1659,0.0087,-0.0149,0.0244
2025-01-27T11:03:39.188Z,0.8487,-0.4062,-0.2193,0.0187,-0.0285,0.1252
2025-01-27T11:03:39.196Z,-0.3099,0.2036,0.0588,0.0187,-0.0285,0.1252
2025-01-27T11:03:39.206Z,-0.4058,0.1398,0.1476,0.0055,-0.0043,-0.0035
2025-01-27T11:03:39.216Z,0.7139,-0.3329,-0.1955,-0.0219,0.0239,-0.0968
2025-01-27T11:03:39.226Z,-0.3709,0.2341,0.0747,0.0130,-0.0273,0.1131
2025-01-27T11:03:39.237Z,-0.2049,0.0628,0.0606,0.0004,0.0019,-0.0248
2025-01-27T11:03:39.246Z,0.6031,-0.2891,-0.1663,-0.0132,0.0150,-0.0650
2025-01-27T11:03:39.256Z,-0.4164,0.2300,0.0855,0.0134,-0.0257,0.1022
2025-01-27T11:03:39.267Z,-0.0604,0.0029,0.0284,-0.0072,0.0102,-0.0388
2025-01-27T11:03:39.276Z,0.4639,-0.2231,-0.1292,-0.0072,0.0102,-0.0388
2025-01-27T11:03:39.288Z,-0.4233,0.2346,0.0960,-0.0066,0.0056,-0.0533
2025-01-27T11:03:39.296Z,0.0603,-0.0235,0.0016,-0.0066,0.0056,-0.0533
2025-01-27T11:03:39.306Z,0.3224,-0.1456,-0.1009,-0.0070,0.0033,-0.0133
2025-01-27T11:03:39.317Z,-0.3890,0.2031,0.0877,-0.0073,0.0109,-0.0584
2025-01-27T11:03:39.327Z,0.1683,-0.1064,-0.0520,-0.0002,-0.0035,0.0065
2025-01-27T11:03:39.338Z,0.2207,-0.0879,-0.0544,0.0076,-0.0136,0.0504
2025-01-27T11:03:39.346Z,-0.3387,0.1673,0.0599,-0.0072,0.0130,-0.0566
2025-01-27T11:03:39.357Z,0.2188,-0.1234,-0.0473,0.0007,-0.0060,0.0244
2025-01-27T11:03:39.367Z,0.0933,-0.0220,-0.0362,0.0067,-0.0116,0.0333
2025-01-27T11:03:39.377Z,-0.2790,0.1283,0.0627,-0.0086,0.0094,-0.0484
2025-01-27T11:03:39.388Z,0.2422,-0.1383,-0.0594,0.0027,-0.0071,0.0342
2025-01-27T11:03:39.396Z,-0.0004,0.0309,-0.0174,0.0023,-0.0074,0.0150
2025-01-27T11:03:39.407Z,-0.1833,0.0835,0.0308,-0.0022,0.0072,-0.0395
2025-01-27T11:03:39.416Z,0.2567,-0.1563,-0.0529,0.0057,-0.0090,0.0385
2025-01-27T11:03:39.426Z,-0.0672,0.0346,0.0438,-0.0032,-0.0054,0.0004
2025-01-27T11:03:39.438Z,-0.1073,0.1031,0.0410,-0.0075,0.0054,-0.0254
2025-01-27T11:03:39.447Z,0.2199,-0.0786,-0.0822,0.0056,-0.0119,0.0386
2025-01-27T11:03:39.456Z,-0.1333,0.0288,0.0081,-0.0025,-0.0002,-0.0110
2025-01-27T11:03:39.467Z,-0.0443,-0.0387,0.0109,-0.0029,0.0012,-0.0157
2025-01-27T11:03:39.476Z,0.1617,-0.0739,-0.0460,0.0002,-0.0087,0.0338
2025-01-27T11:03:39.488Z,-0.1460,0.1101,0.0245,-0.0011,0.0022,-0.0201
2025-01-27T11:03:39.496Z,0.0522,-0.0214,-0.0136,-0.0006,0.0015,-0.0037
2025-01-27T11:03:39.507Z,0.1302,-0.0946,-0.0548,0.0059,-0.0084,0.0245
2025-01-27T11:03:39.516Z,-0.1487,0.0489,0.0325,-0.0035,0.0033,-0.0205
2025-01-27T11:03:39.526Z,0.0555,-0.0232,-0.0256,-0.0010,-0.0015,0.0081
2025-01-27T11:03:39.537Z,0.0805,0.0180,-0.0211,0.0027,-0.0072,0.0192
2025-01-27T11:03:39.546Z,-0.1067,0.0685,0.0169,-0.0035,0.0035,-0.0213
2025-01-27T11:03:39.556Z,0.1118,-0.0716,-0.0279,-0.0001,-0.0069,0.0125
2025-01-27T11:03:39.566Z,0.0100,-0.0200,-0.0332,-0.0007,-0.0052,0.0080
2025-01-27T11:03:39.576Z,-0.1150,0.0499,0.0314,-0.0020,0.0038,-0.0168
2025-01-27T11:03:39.588Z,0.1284,-0.0573,-0.0132,0.0030,-0.0025,0.0167
2025-01-27T11:03:39.596Z,0.0056,0.0148,0.0009,-0.0018,-0.0021,0.0009
2025-01-27T11:03:39.606Z,-0.0576,0.0435,-0.0060,-0.0048,0.0016,-0.0111
2025-01-27T11:03:39.616Z,0.0777,-0.0315,-0.0395,0.0026,-0.0063,0.0187
2025-01-27T11:03:39.626Z,-0.0884,0.0388,0.0141,-0.0000,-0.0027,-0.0056
2025-01-27T11:03:39.637Z,-0.0093,-0.0108,0.0055,-0.0024,0.0006,-0.0067
2025-01-27T11:03:39.646Z,0.1037,-0.0320,-0.0476,0.0185,0.0013,0.0175
2025-01-27T11:03:39.656Z,-0.0494,0.0427,-0.0072,0.0053,0.0010,-0.0049
2025-01-27T11:03:39.666Z,0.0137,-0.0679,0.0088,-0.0004,-0.0002,0.0023
2025-01-27T11:03:39.676Z,0.0559,0.0003,-0.0448,0.0008,-0.0077,0.0116
2025-01-27T11:03:39.687Z,-0.0671,0.0577,0.0430,-0.0084,0.0003,-0.0085
2025-01-27T11:03:39.696Z,0.0487,0.0122,-0.0279,-0.0029,-0.0092,0.0051
2025-01-27T11:03:39.706Z,0.0262,-0.0187,-0.0304,-0.0036,-0.0080,0.0107
2025-01-27T11:03:39.716Z,-0.0728,-0.0006,0.0199,-0.0183,-0.0055,-0.0036
2025-01-27T11:03:39.726Z,0.0281,0.0340,-0.0144,0.0071,0.0012,0.0075