time,ax,ay,az,wx,wy,wz
2025-01-27T11:04:39.399Z,-0.0395,-0.0293,0.0444,0.0095,0.0025,0.0149
2025-01-27T11:04:39.408Z,-0.0347,0.1003,-0.0507,0.0045,0.0033,0.0014
2025-01-27T11:04:39.419Z,0.0454,-0.0217,0.0119,0.0094,-0.0084,0.0107
2025-01-27T11:04:39.428Z,-0.0376,-0.0267,0.0246,-0.0118,0.0009,-0.0078
2025-01-27T11:04:39.439Z,0.0303,0.0390,-0.0419,0.0008,-0.0027,0.0079
2025-01-27T11:04:39.449Z,0.0285,0.0074,-0.0149,0.0073,-0.0028,0.0078
2025-01-27T11:04:39.458Z,-0.0448,-0.0157,0.0515,-0.0082,0.0018,-0.0073
2025-01-27T11:04:39.469Z,0.0814,-0.0083,-0.0586,0.0023,-0.0041,0.0097
2025-01-27T11:04:39.478Z,-0.0550,0.0543,0.0071,0.0057,-0.0012,0.0026
2025-01-27T11:04:39.489Z,-0.0078,-0.0133,0.0231,-0.0063,-0.0032,-0.0082
2025-01-27T11:04:39.499Z,0.0541,-0.0042,-0.0294,-0.0013,-0.0047,0.0159
2025-01-27T11:04:39.508Z,-0.0511,0.0555,0.0010,0.0016,-0.0030,-0.0022
2025-01-27T11:04:39.519Z,0.0172,-0.0263,0.0153,-0.0025,0.0007,0.0020
2025-01-27T11:04:39.528Z,0.0339,0.0050,-0.0323,-0.0025,-0.0076,0.0111
2025-01-27T11:04:39.539Z,-0.0695,0.0577,-0.0071,0.0032,-0.0005,-0.0076
2025-01-27T11:04:39.549Z,0.0352,-0.0559,0.0017,0.0008,-0.0036,0.0060
2025-01-27T11:04:39.558Z,-0.0011,0.0003,-0.0094,-0.0003,-0.0030,0.0056
2025-01-27T11:04:39.569Z,-0.0456,0.0589,-0.0001,-0.0004,0.0021,-0.0046
2025-01-27T11:04:39.578Z,0.0576,-0.0153,-0.0296,-0.0004,-0.0058,0.0102
2025-01-27T11:04:39.591Z,-0.0129,0.0333,-0.0053,-0.0028,0.0012,0.0054
2025-01-27T11:04:39.599Z,-0.0129,0.0333,-0.0053,-0.0016,-0.0028,-0.0060
2025-01-27T11:04:39.608Z,0.0450,-0.0081,-0.0199,-0.0020,-0.0036,0.0081
2025-01-27T11:04:39.619Z,-0.0187,-0.0028,0.0034,-0.0006,-0.0021,-0.0019
2025-01-27T11:04:39.628Z,0.0079,-0.0036,-0.0019,-0.0011,-0.0052,0.0006
2025-01-27T11:04:39.641Z,-0.0323,0.0080,0.0140,0.0007,-0.0025,0.0031
2025-01-27T11:04:39.649Z,-0.0323,0.0080,0.0140,-0.0036,-0.0033,-0.0026
2025-01-27T11:04:39.658Z,0.0076,0.0088,-0.0140,0.0005,-0.0025,0.0022
2025-01-27T11:04:39.670Z,-0.0139,0.0047,0.0108,0.0021,-0.0035,0.0054
2025-01-27T11:04:39.678Z,-0.0139,0.0047,0.0108,-0.0014,-0.0023,-0.0000
2025-01-27T11:04:39.691Z,0.0048,0.0261,0.0039,-0.0020,-0.0010,0.0017
2025-01-27T11:04:39.700Z,-0.0046,0.0010,-0.0038,0.0025,-0.0015,0.0022
2025-01-27T11:04:39.708Z,-0.0046,0.0010,-0.0038,-0.0016,-0.0032,0.0021
2025-01-27T11:04:39.720Z,0.0060,-0.0064,-0.0121,-0.0034,-0.0044,0.0011
2025-01-27T11:04:39.729Z,0.0011,0.0047,-0.0025,-0.0000,0.0001,0.0043
2025-01-27T11:04:39.741Z,-0.0161,0.0105,-0.0014,-0.0013,-0.0053,0.0013
2025-01-27T11:04:39.749Z,0.0107,0.0159,-0.0222,-0.0009,0.0013,-0.0007
2025-01-27T11:04:39.759Z,-0.0182,0.0280,-0.0167,-0.0006,-0.0034,0.0049
2025-01-27T11:04:39.769Z,0.0055,-0.0060,-0.0092,-0.0033,0.0012,-0.0007
2025-01-27T11:04:39.779Z,-0.0171,0.0025,-0.0088,0.0012,-0.0041,0.0033
2025-01-27T11:04:39.790Z,-0.0184,0.0128,0.0129,0.0009,-0.0025,0.0016
2025-01-27T11:04:39.799Z,0.0236,0.0017,-0.0149,-0.0014,-0.0037,0.0026
2025-01-27T11:04:39.809Z,-0.0121,0.0183,-0.0097,-0.0018,-0.0029,0.0036
2025-01-27T11:04:39.819Z,0.0026,0.0037,-0.0043,0.0013,-0.0042,0.0009
2025-01-27T11:04:39.829Z,0.0159,0.0088,0.0053,0.0002,-0.0038,0.0034
2025-01-27T11:04:39.840Z,-0.0251,0.0302,0.0037,-0.0004,-0.0045,0.0038
2025-01-27T11:04:39.849Z,-0.0136,-0.0019,-0.0079,0.0011,-0.0029,0.0030
2025-01-27T11:04:39.859Z,-0.5289,0.5698,-0.0569,0.0092,0.0817,0.8094
2025-01-27T11:04:39.869Z,-2.8625,2.1352,0.0633,0.0048,-0.1245,1.6156
2025-01-27T11:04:39.879Z,1.4142,-1.5155,0.2033,0.0089,0.0451,0.3479
2025-01-27T11:04:39.890Z,2.1532,-0.8407,-0.6669,-0.0192,0.1211,0.7284
2025-01-27T11:04:39.899Z,-3.5921,1.9841,0.6874,0.0561,-0.1646,1.5378
2025-01-27T11:04:39.909Z,1.3044,-1.0479,-0.1745,-0.0234,0.0766,0.4811
2025-01-27T11:04:39.919Z,2.3799,-1.1738,-0.4588,-0.0041,0.0788,0.4693
2025-01-27T11:04:39.928Z,-3.2120,1.8911,0.5490,0.0512,-0.0799,1.6131
2025-01-27T11:04:39.940Z,-0.2174,-0.0019,-0.1113,-0.0236,-0.0318,0.8779
2025-01-27T11:04:39.949Z,2.9066,-1.7121,-0.3286,-0.0039,0.1252,0.3512
2025-01-27T11:04:39.959Z,-1.5722,0.9336,0.2319,0.0515,-0.0318,1.2569
2025-01-27T11:04:39.969Z,-1.6299,0.9787,0.1448,-0.0106,-0.0671,1.1858
2025-01-27T11:04:39.978Z,2.6060,-1.7292,-0.2776,-0.0096,0.0786,0.2750
2025-01-27T11:04:39.989Z,-0.1342,0.1513,0.0004,0.0283,-0.0146,0.8689
2025-01-27T11:04:39.999Z,-2.2621,1.3853,0.2931,0.0159,-0.0392,1.3910
2025-01-27T11:04:40.008Z,1.0818,-0.6292,-0.2746,-0.0204,0.0240,0.6771
2025-01-27T11:04:40.020Z,1.2629,-0.9435,0.0178,0.0171,-0.0357,1.2372
2025-01-27T11:04:40.028Z,-1.5059,1.0288,0.1226,0.0171,-0.0357,1.2372
2025-01-27T11:04:40.040Z,-0.5228,0.3702,-0.0265,-0.0148,-0.0212,1.0234
2025-01-27T11:04:40.049Z,1.7769,-1.3252,-0.1257,0.0102,0.0471,0.4002
2025-01-27T11:04:40.058Z,-0.3516,0.2570,0.0277,0.0211,0.0032,0.9172
2025-01-27T11:04:40.070Z,-1.6012,1.0545,0.1405,0.0056,0.0210,0.7461
2025-01-27T11:04:40.078Z,0.8588,-0.5854,-0.1024,0.0056,0.0210,0.7461
2025-01-27T11:04:40.089Z,0.9188,-0.6959,0.0188,0.0245,0.0403,0.7239
2025-01-27T11:04:40.099Z,-1.0880,0.8038,0.0506,-0.0027,-0.0060,1.0184
2025-01-27T11:04:40.108Z,-0.3574,0.2289,-0.0493,-0.0027,-0.0060,1.0184
2025-01-27T11:04:40.119Z,1.1538,-0.9943,-0.0126,0.0071,0.0134,0.8500
2025-01-27T11:04:40.128Z,-0.0901,0.1601,-0.0521,0.0071,0.0134,0.8500
2025-01-27T11:04:40.139Z,-1.0429,0.7155,0.1142,0.0014,-0.0192,1.1225
2025-01-27T11:04:40.149Z,0.2216,-0.0860,-0.1006,0.0117,0.0251,0.6973
2025-01-27T11:04:40.158Z,0.7803,-0.7295,0.0667,0.0117,0.0251,0.6973
2025-01-27T11:04:40.169Z,-0.3685,0.3925,-0.1002,0.0079,-0.0377,1.1495
2025-01-27T11:04:40.179Z,-0.9469,0.5987,0.1140,0.0125,0.0262,0.5602
2025-01-27T11:04:40.189Z,1.0451,-0.8329,-0.0276,0.0125,0.0262,0.5602
2025-01-27T11:04:40.199Z,0.5728,-0.2028,-0.1037,0.0031,-0.0329,1.1300
2025-01-27T11:04:40.209Z,-1.3244,0.8378,0.1691,0.0127,0.0184,0.9974
2025-01-27T11:04:40.219Z,-0.0218,0.0177,-0.1237,0.0085,-0.0037,0.6899
2025-01-27T11:04:40.229Z,0.8210,-0.7433,0.0391,0.0027,0.0145,0.9299
2025-01-27T11:04:40.239Z,-0.1678,0.2527,-0.1119,0.0027,0.0145,0.9299
2025-01-27T11:04:40.249Z,-0.8488,0.5355,0.0984,0.0120,0.0163,0.6556
2025-01-27T11:04:40.258Z,0.6480,-0.5701,-0.0244,0.0120,0.0163,0.6556
2025-01-27T11:04:40.269Z,0.7572,-0.3971,-0.1022,0.0020,-0.0305,1.0945
2025-01-27T11:04:40.278Z,-1.0954,0.7675,0.0850,0.0130,0.0025,1.0747
2025-01-27T11:04:40.290Z,-0.3895,0.2418,-0.0293,0.0094,-0.0030,0.6207
2025-01-27T11:04:40.299Z,0.9200,-0.7738,0.0022,0.0006,0.0315,0.8605
2025-01-27T11:04:40.308Z,0.1417,0.0825,-0.1202,0.0006,0.0315,0.8605
2025-01-27T11:04:40.319Z,-1.1147,0.7262,0.1150,0.0153,0.0016,0.7190
2025-01-27T11:04:40.329Z,0.3882,-0.4816,0.0179,0.0124,0.0645,0.6347
2025-01-27T11:04:40.339Z,1.1715,-0.7186,-0.1188,-0.0031,-0.0459,1.0543
2025-01-27T11:04:40.349Z,-1.0866,0.8017,0.0657,0.0177,0.0132,1.1380
2025-01-27T11:04:40.359Z,-0.6562,0.4122,0.0239,0.0084,-0.0105,0.6367
2025-01-27T11:04:40.369Z,0.8768,-0.7221,-0.0036,-0.0037,0.0442,0.8150
2025-01-27T11:04:40.378Z,0.3632,-0.0922,-0.1053,0.0049,-0.0296,1.2054
2025-01-27T11:04:40.389Z,-1.0975,0.7982,0.0814,0.0193,-0.0082,0.7830
2025-01-27T11:04:40.398Z,0.1015,-0.3522,0.0492,0.0070,0.0676,0.5894
2025-01-27T11:04:40.409Z,1.4413,-0.8932,-0.1516,0.0070,0.0676,0.5894
2025-01-27T11:04:40.419Z,-1.0460,0.8299,0.0207,0.0212,0.0118,1.1508
2025-01-27T11:04:40.428Z,-0.7908,0.4311,0.0838,0.0151,-0.0107,0.6668
2025-01-27T11:04:40.439Z,0.9243,-0.7168,-0.0206,-0.0096,0.0512,0.7552
2025-01-27T11:04:40.448Z,0.4738,-0.2013,-0.0751,0.0069,-0.0208,1.2617
2025-01-27T11:04:40.459Z,-1.1152,0.9218,0.0353,0.0184,-0.0327,0.8622
2025-01-27T11:04:40.469Z,-0.2425,-0.1850,0.1263,0.0137,0.0724,0.4612
2025-01-27T11:04:40.478Z,1.8005,-1.1542,-0.1745,-0.0150,-0.0363,1.0175
2025-01-27T11:04:40.489Z,-0.8505,0.8130,-0.0402,0.0199,-0.0081,1.2442
2025-01-27T11:04:40.498Z,-1.3666,0.7477,0.1348,0.0276,0.0081,0.6212
2025-01-27T11:04:40.509Z,1.1938,-0.9922,-0.0043,-0.0124,0.0580,0.7982
2025-01-27T11:04:40.519Z,0.6137,-0.1966,-0.1501,-0.0004,-0.0448,1.2109
2025-01-27T11:04:40.528Z,-1.3222,0.9945,0.0815,0.0345,-0.0020,0.8521
2025-01-27T11:04:40.539Z,0.0635,-0.3327,0.0830,-0.0003,0.0334,0.5323
2025-01-27T11:04:40.549Z,1.3879,-0.8906,-0.1198,-0.0249,-0.0245,0.9356
2025-01-27T11:04:40.559Z,-0.7503,0.8077,-0.0744,0.0306,0.0120,1.0433
2025-01-27T11:04:40.569Z,-0.6712,0.1914,0.1576,0.0194,-0.0017,0.8678
2025-01-27T11:04:40.578Z,0.4106,-0.2692,-0.0576,-0.0143,0.0168,0.8041
2025-01-27T11:04:40.589Z,0.2380,-0.1570,-0.0387,0.0193,0.0151,1.0039
2025-01-27T11:04:40.599Z,-0.1358,0.2445,-0.0044,0.0086,-0.0376,1.0348
2025-01-27T11:04:40.608Z,-0.6295,0.2133,0.1260,0.0062,0.0262,0.5628
2025-01-27T11:04:40.619Z,0.8332,-0.6113,-0.0700,-0.0000,0.0253,0.7446
2025-01-27T11:04:40.628Z,0.4471,-0.0690,-0.0797,0.0002,-0.0124,1.2442
2025-01-27T11:04:40.639Z,-1.3457,0.8933,0.1040,0.0253,-0.0162,0.9328
2025-01-27T11:04:40.649Z,-0.0791,-0.1601,0.0345,0.0097,0.0517,0.6156
2025-01-27T11:04:40.658Z,1.3645,-0.9862,-0.0601,-0.0165,-0.0119,1.0443
2025-01-27T11:04:40.669Z,-0.5548,0.6547,-0.0882,0.0143,-0.0338,1.1501
2025-01-27T11:04:40.678Z,-1.1179,0.5610,0.1410,0.0320,0.0204,0.4907
2025-01-27T11:04:40.689Z,1.2832,-1.1176,0.0087,-0.0224,0.0456,0.7888
2025-01-27T11:04:40.699Z,0.4303,0.1076,-0.1957,-0.0041,-0.0361,1.1314
2025-01-27T11:04:40.708Z,-1.3664,0.9018,0.1447,0.0507,0.0215,0.9510
2025-01-27T11:04:40.719Z,0.1438,-0.2206,0.0303,-0.0182,0.0045,0.7396
2025-01-27T11:04:40.728Z,0.8000,-0.5333,-0.0315,-0.0078,0.0002,0.9351
2025-01-27T11:04:40.739Z,-0.2901,0.4241,-0.1420,0.0337,-0.0059,1.0810
2025-01-27T11:04:40.749Z,-0.5857,0.1668,0.1914,0.0103,-0.0084,0.6988
2025-01-27T11:04:40.759Z,0.3791,-0.4617,-0.0043,-0.0080,0.0551,0.6872
2025-01-27T11:04:40.768Z,0.7549,-0.2570,-0.1597,0.0083,-0.0191,1.0927
2025-01-27T11:04:40.778Z,-0.8227,0.6293,0.0732,0.0231,-0.0180,1.0981
2025-01-27T11:04:40.789Z,-0.6673,0.2640,0.0696,0.0054,0.0098,0.5963
2025-01-27T11:04:40.798Z,1.0707,-0.7854,-0.0292,-0.0078,0.0391,0.8815
2025-01-27T11:04:40.808Z,0.3007,0.0973,-0.1455,0.0019,-0.0417,1.2878
2025-01-27T11:04:40.819Z,-1.4990,0.9778,0.1187,0.0350,-0.0089,0.5982
2025-01-27T11:04:40.828Z,0.5961,-0.8907,0.0870,0.0055,0.0935,0.6028
2025-01-27T11:04:40.839Z,1.5470,-0.6836,-0.2093,-0.0404,-0.0620,1.1849
2025-01-27T11:04:40.849Z,-1.5913,1.2763,0.0320,0.0567,0.0008,1.0457
2025-01-27T11:04:40.858Z,-0.5808,-0.0014,0.1359,0.0187,0.0214,0.5710
2025-01-27T11:04:40.869Z,1.3857,-0.9593,-0.0186,-0.0462,0.0190,0.9087
2025-01-27T11:04:40.878Z,-0.1438,0.4930,-0.2427,0.0338,-0.0056,1.1605
2025-01-27T11:04:40.889Z,-0.9385,0.5702,0.1742,0.0325,-0.0222,0.7644
2025-01-27T11:04:40.899Z,0.3114,-0.5939,0.1142,-0.0269,0.0572,0.6683
2025-01-27T11:04:40.908Z,1.0271,-0.4227,-0.2143,-0.0039,-0.0276,0.9598
2025-01-27T11:04:40.919Z,-0.6219,0.6290,0.0034,0.0412,0.0004,1.1302
2025-01-27T11:04:40.928Z,-0.7917,0.2025,0.1637,-0.0002,-0.0122,0.7649
2025-01-27T11:04:40.939Z,0.5051,-0.3587,-0.0604,-0.0132,0.0476,0.7501
2025-01-27T11:04:40.949Z,0.6293,-0.2420,-0.1257,0.0190,0.0004,1.1811
2025-01-27T11:04:40.958Z,-0.7397,0.5999,0.0909,0.0068,-0.0521,0.8978
2025-01-27T11:04:40.969Z,-0.5034,-0.0101,0.0857,0.0205,0.0737,0.5104
2025-01-27T11:04:40.978Z,1.6154,-1.0684,-0.1070,-0.0242,-0.0186,0.9376
2025-01-27T11:04:40.989Z,-0.3875,0.6891,-0.0997,0.0084,-0.0179,1.2290
2025-01-27T11:04:40.998Z,-1.4511,0.6715,0.1283,0.0521,-0.0012,0.7231
2025-01-27T11:04:41.008Z,0.7763,-0.7048,0.0443,-0.0246,0.0548,0.7106
2025-01-27T11:04:41.019Z,0.9089,-0.3912,-0.1819,-0.0073,-0.0116,1.1830
2025-01-27T11:04:41.028Z,-1.0025,0.9083,-0.0227,0.0443,-0.0408,0.9606
2025-01-27T11:04:41.039Z,-0.5221,-0.1616,0.2014,0.0044,0.0381,0.5124
2025-01-27T11:04:41.049Z,1.4560,-0.9897,-0.0851,-0.0335,0.0066,0.8825
2025-01-27T11:04:41.058Z,-0.1592,0.6560,-0.2291,0.0287,-0.0126,1.1710
2025-01-27T11:04:41.069Z,-1.2500,0.5181,0.2367,0.0393,-0.0042,0.8616
2025-01-27T11:04:41.078Z,0.3633,-0.4185,0.0491,-0.0354,0.0346,0.6741
2025-01-27T11:04:41.089Z,0.9321,-0.4108,-0.1803,0.0119,0.0182,1.1290
2025-01-27T11:04:41.099Z,-0.5091,0.6295,-0.0231,0.0234,-0.0617,1.0452
2025-01-27T11:04:41.108Z,-0.9579,0.2595,0.2135,0.0119,0.0386,0.4328
2025-01-27T11:04:41.119Z,1.4311,-1.1430,-0.0622,-0.0193,0.0414,0.8645
2025-01-27T11:04:41.128Z,0.2350,0.5240,-0.2450,0.0025,-0.0434,1.1205
2025-01-27T11:04:41.139Z,-1.4743,0.5973,0.2627,0.0611,0.0162,0.8984
2025-01-27T11:04:41.149Z,0.3584,-0.3394,0.0098,-0.0368,0.0110,0.7425
2025-01-27T11:04:41.158Z,0.8069,-0.3955,-0.1224,-0.0007,0.0093,0.9996
2025-01-27T11:04:41.169Z,-0.3759,0.4451,-0.0902,0.0412,-0.0265,1.0780
2025-01-27T11:04:41.178Z,-0.6772,0.2081,0.1892,-0.0086,-0.0071,0.5883
2025-01-27T11:04:41.189Z,0.6465,-0.6306,-0.0330,-0.0060,0.0649,0.7244
2025-01-27T11:04:41.199Z,0.7586,-0.0425,-0.1974,0.0062,-0.0200,1.1475
2025-01-27T11:04:41.208Z,-1.0727,0.6494,0.1729,0.0220,-0.0214,1.0708
2025-01-27T11:04:41.219Z,-0.5783,0.1787,0.0261,0.0046,0.0248,0.5845
2025-01-27T11:04:41.228Z,1.2969,-0.8688,-0.0473,-0.0077,0.0432,0.9732
2025-01-27T11:04:41.239Z,0.1096,0.3089,-0.1572,-0.0002,-0.0535,1.2393
2025-01-27T11:04:41.249Z,-1.5421,0.9020,0.1598,0.0396,-0.0079,0.5156
2025-01-27T11:04:41.258Z,0.9114,-1.1066,0.1020,-0.0060,0.1023,0.6756
2025-01-27T11:04:41.269Z,1.3044,-0.2947,-0.2740,-0.0349,-0.0560,1.2104
2025-01-27T11:04:41.278Z,-1.6643,1.2296,0.0662,0.0682,-0.0249,0.9849
2025-01-27T11:04:41.289Z,-0.4952,-0.2336,0.1900,-0.0011,0.0395,0.6123
2025-01-27T11:04:41.299Z,1.4991,-0.8699,-0.0822,-0.0477,0.0071,0.9530
2025-01-27T11:04:41.308Z,-0.2505,0.6708,-0.3013,0.0587,-0.0148,1.1534
2025-01-27T11:04:41.319Z,-1.0538,0.3741,0.3033,0.0230,-0.0203,0.6411
2025-01-27T11:04:41.328Z,0.6250,-0.7199,0.0735,-0.0387,0.0771,0.7453
2025-01-27T11:04:41.339Z,0.9454,-0.1118,-0.3463,0.0176,-0.0425,1.0156
2025-01-27T11:04:41.349Z,-0.9171,0.6112,0.1625,0.0420,-0.0039,1.0925
2025-01-27T11:04:41.358Z,-0.6172,0.0325,0.1530,-0.0242,0.0023,0.7251
2025-01-27T11:04:41.369Z,0.7062,-0.3056,-0.1632,0.0088,0.0332,0.7868
2025-01-27T11:04:41.378Z,0.4472,-0.1772,-0.1092,0.0277,0.0005,1.1652
2025-01-27T11:04:41.389Z,-0.7986,0.4922,0.1414,-0.0131,-0.0544,0.8341
2025-01-27T11:04:41.399Z,-0.3294,0.0247,-0.0169,0.0232,0.0679,0.5133
2025-01-27T11:04:41.408Z,1.5421,-0.9950,-0.0661,-0.0042,0.0092,1.0633
2025-01-27T11:04:41.419Z,-0.4309,0.7143,-0.0585,-0.0114,-0.0614,1.1861
2025-01-27T11:04:41.428Z,-1.5930,0.7741,0.1116,0.0523,0.0275,0.5596
2025-01-27T11:04:41.439Z,1.2476,-1.0857,0.0806,-0.0232,0.0681,0.8355
2025-01-27T11:04:41.449Z,0.7511,0.0241,-0.2487,-0.0183,-0.0379,1.1974
2025-01-27T11:04:41.458Z,-1.4655,0.9273,0.0689,0.0675,-0.0261,0.7960
2025-01-27T11:04:41.469Z,0.0961,-0.5212,0.1840,-0.0238,0.0698,0.6226
2025-01-27T11:04:41.478Z,1.4169,-0.7655,-0.1727,-0.0309,-0.0099,0.9945
2025-01-27T11:04:41.491Z,-1.0251,0.2382,0.3080,0.0609,-0.0141,1.1640
2025-01-27T11:04:41.499Z,-1.0251,0.2382,0.3080,-0.0019,-0.0091,0.7092
2025-01-27T11:04:41.508Z,0.6986,-0.5365,-0.0323,-0.0249,0.0696,0.8072
2025-01-27T11:04:41.519Z,0.7530,-0.0479,-0.3067,0.0411,-0.0246,1.1293
2025-01-27T11:04:41.528Z,-0.8927,0.4592,0.2308,0.0090,-0.0406,0.8963
2025-01-27T11:04:41.541Z,1.3522,-0.7084,-0.2004,-0.0151,0.0535,0.5809
2025-01-27T11:04:41.548Z,1.3522,-0.7084,-0.2004,0.0200,-0.0033,0.8710
2025-01-27T11:04:41.558Z,-0.2542,0.4074,-0.0106,0.0109,-0.0173,1.1008
2025-01-27T11:04:41.570Z,0.2750,-0.0433,-0.1154,0.0043,0.0049,0.8919
2025-01-27T11:04:41.578Z,0.2750,-0.0433,-0.1154,-0.0004,0.0262,0.7186
2025-01-27T11:04:41.591Z,-0.3382,0.3512,0.0031,0.0105,0.0168,1.0448
2025-01-27T11:04:41.598Z,-0.3382,0.3512,0.0031,0.0040,-0.0428,1.0521
2025-01-27T11:04:41.608Z,-0.7881,0.4438,0.0596,0.0133,0.0089,0.5341
2025-01-27T11:04:41.620Z,0.5295,0.0859,-0.1800,0.0030,0.0557,0.7943
2025-01-27T11:04:41.628Z,0.5295,0.0859,-0.1800,-0.0029,-0.0289,1.1961
2025-01-27T11:04:41.641Z,-0.1912,-0.1279,0.0579,0.0299,-0.0292,0.9312
2025-01-27T11:04:41.649Z,1.3810,-0.8459,-0.0960,0.0048,0.0459,0.6379
2025-01-27T11:04:41.658Z,1.3810,-0.8459,-0.0960,-0.0102,0.0163,1.0676
2025-01-27T11:04:41.669Z,-1.2310,0.5178,0.1866,0.0232,-0.0531,1.1219
2025-01-27T11:04:41.679Z,1.2574,-1.1069,0.0183,0.0117,0.0127,0.4376
2025-01-27T11:04:41.691Z,0.7599,0.1430,-0.3405,-0.0099,0.0872,0.8001
2025-01-27T11:04:41.699Z,-1.6264,0.8787,0.2579,0.0094,-0.0515,1.1767
2025-01-27T11:04:41.709Z,-0.0752,-0.2921,0.0613,0.0296,-0.0246,0.8954
2025-01-27T11:04:41.719Z,1.3452,-0.5645,-0.2213,-0.0190,0.0695,0.7217
2025-01-27T11:04:41.729Z,-0.5143,0.4471,0.0278,0.0024,-0.0145,0.9961
2025-01-27T11:04:41.741Z,-0.8757,0.3091,0.1673,0.0321,-0.0218,1.1085
2025-01-27T11:04:41.749Z,0.8000,-0.5505,-0.0903,-0.0069,-0.0020,0.6285
2025-01-27T11:04:41.759Z,0.7981,-0.3205,-0.1440,0.0004,0.0638,0.6921
2025-01-27T11:04:41.769Z,-0.9887,0.6391,0.1641,0.0241,-0.0166,1.1246
2025-01-27T11:04:41.779Z,-0.7194,0.3534,0.0079,-0.0048,-0.0342,1.0804
2025-01-27T11:04:41.790Z,1.2082,-0.8244,-0.0724,0.0033,0.0245,0.6088
2025-01-27T11:04:41.799Z,0.3690,-0.0109,-0.0690,0.0199,0.0488,0.9099
2025-01-27T11:04:41.809Z,-1.5481,1.0348,0.1108,-0.0020,-0.0423,1.2745
2025-01-27T11:04:41.819Z,0.5533,-0.7902,0.0869,0.0088,-0.0458,0.5455
2025-01-27T11:04:41.828Z,1.5943,-0.6082,-0.2747,0.0193,0.1277,0.7092
2025-01-27T11:04:41.840Z,-1.3940,1.0183,0.1410,-0.0087,-0.0691,1.0954
2025-01-27T11:04:41.849Z,-0.7580,0.1071,0.0774,0.0202,-0.0291,1.0325
2025-01-27T11:04:41.858Z,1.2931,-0.6675,-0.1021,0.0078,0.0468,0.6807
2025-01-27T11:04:41.869Z,0.0647,0.0967,-0.0750,-0.0102,0.0113,0.8586
2025-01-27T11:04:41.878Z,-0.9801,0.5451,0.1308,0.0214,-0.0084,1.1560
2025-01-27T11:04:41.889Z,0.1831,-0.2209,0.0292,0.0069,-0.0253,0.7718
2025-01-27T11:04:41.899Z,1.2242,-0.7413,-0.1425,-0.0085,0.0523,0.6023
2025-01-27T11:04:41.908Z,-0.5486,0.5947,-0.0074,0.0215,-0.0005,1.0417
2025-01-27T11:04:41.919Z,-1.2209,0.6262,0.1582,0.0069,-0.0441,1.1825
2025-01-27T11:04:41.928Z,0.9595,-0.6896,-0.0768,-0.0054,0.0096,0.6201
2025-01-27T11:04:41.940Z,0.8596,-0.3239,-0.1241,0.0202,0.0666,0.7794
2025-01-27T11:04:41.949Z,-1.2553,0.7775,0.1801,0.0100,-0.0253,1.2083
2025-01-27T11:04:41.958Z,-0.2023,-0.0395,0.0046,-0.0060,-0.0477,0.8169
2025-01-27T11:04:41.969Z,1.6541,-1.0126,-0.1182,0.0113,-0.0131,0.9866
2025-01-27T11:04:41.978Z,-0.5729,0.6168,-0.0072,0.0113,-0.0131,0.9866
2025-01-27T11:04:41.989Z,-1.2835,0.6467,0.1336,-0.0006,-0.0360,1.1635
2025-01-27T11:04:41.999Z,0.8141,-0.5167,-0.0690,0.0108,0.0085,0.7198
2025-01-27T11:04:42.008Z,0.9128,-0.5305,-0.0794,0.0112,0.0502,0.7263
2025-01-27T11:04:42.019Z,-1.1451,0.8960,0.0339,0.0062,-0.0725,0.8407
2025-01-27T11:04:42.028Z,-0.4742,0.0159,0.1218,0.0062,-0.0725,0.8407
2025-01-27T11:04:42.039Z,1.8987,-1.2372,-0.1456,0.0036,0.0896,0.4834
2025-01-27T11:04:42.049Z,-0.4509,0.6925,-0.0959,0.0227,0.0082,1.0327
2025-01-27T11:04:42.058Z,-1.7637,0.8080,0.2646,0.0059,-0.0614,1.2183
2025-01-27T11:04:42.069Z,1.0872,-0.6832,-0.1177,0.0239,0.0629,0.7560
2025-01-27T11:04:42.079Z,1.0984,-0.4827,-0.1571,0.0123,-0.0325,1.1991
2025-01-27T11:04:42.089Z,-1.3693,0.7947,0.2150,0.0123,-0.0325,1.1991
2025-01-27T11:04:42.099Z,-0.3863,0.1397,-0.0294,0.0091,0.0524,0.4908
2025-01-27T11:04:42.109Z,1.6574,-1.0926,-0.1020,0.0091,0.0524,0.4908
2025-01-27T11:04:42.119Z,-0.2871,0.3852,-0.0133,-0.0076,-0.0375,1.1617
2025-01-27T11:04:42.129Z,-1.3347,0.7437,0.1483,0.0000,0.0030,0.8139
2025-01-27T11:04:42.140Z,0.5116,-0.2788,-0.1050,0.0200,0.0370,0.6664
2025-01-27T11:04:42.149Z,1.0773,-0.7571,-0.0251,0.0044,0.0109,1.1660
2025-01-27T11:04:42.159Z,-0.8045,0.7067,-0.0113,0.0013,-0.0576,1.0130
2025-01-27T11:04:42.169Z,-0.8515,0.4565,0.0914,0.0002,0.0419,0.4401
2025-01-27T11:04:42.178Z,1.5464,-1.1630,-0.0480,0.0246,0.0495,0.8743
2025-01-27T11:04:42.190Z,0.2017,0.2228,-0.1769,0.0066,-0.0525,1.1230
2025-01-27T11:04:42.199Z,-1.4503,0.6834,0.2903,-0.0151,0.0111,0.9257
2025-01-27T11:04:42.208Z,0.2554,-0.0022,-0.1987,-0.0151,0.0111,0.9257
2025-01-27T11:04:42.219Z,1.0180,-0.6839,-0.0187,0.0172,0.0189,1.0440
2025-01-27T11:04:42.229Z,-0.3650,0.2570,0.0517,-0.0068,-0.0349,1.1430
2025-01-27T11:04:42.240Z,-0.9558,0.7411,-0.0267,0.0011,-0.0104,0.4734
2025-01-27T11:04:42.249Z,1.0168,-0.9498,0.0803,0.0214,0.0966,0.8102
2025-01-27T11:04:42.259Z,0.7829,-0.2020,-0.2304,0.0127,-0.0675,1.0898
2025-01-27T11:04:42.269Z,-1.4068,0.8138,0.2562,-0.0185,0.0067,0.9899
2025-01-27T11:04:42.279Z,-0.1374,0.1485,-0.1217,0.0223,0.0265,0.7241
2025-01-27T11:04:42.289Z,1.0667,-0.6790,-0.0763,0.0242,0.0079,0.9173
2025-01-27T11:04:42.298Z,-0.1770,0.0282,0.1177,-0.0102,-0.0105,1.1407
2025-01-27T11:04:42.309Z,-0.7971,0.6798,-0.0651,0.0085,-0.0275,0.6376
2025-01-27T11:04:42.319Z,0.5032,-0.5247,0.0729,0.0186,0.0806,0.7012
2025-01-27T11:04:42.328Z,0.9816,-0.5681,-0.1163,0.0114,-0.0318,1.1131
2025-01-27T11:04:42.339Z,-0.9910,0.7659,0.0773,-0.0064,-0.0288,1.0644
2025-01-27T11:04:42.348Z,-0.7150,0.3862,0.0303,0.0009,0.0302,0.6288
2025-01-27T11:04:42.358Z,1.2285,-0.8447,-0.1185,0.0009,0.0302,0.6288
2025-01-27T11:04:42.369Z,0.1726,-0.0577,-0.0042,0.0058,-0.0271,1.2144
2025-01-27T11:04:42.378Z,-1.2556,0.8694,0.0882,-0.0190,-0.0254,0.6384
2025-01-27T11:04:42.390Z,0.5052,-0.4177,-0.0313,0.0224,0.0886,0.6488
2025-01-27T11:04:42.399Z,1.3802,-0.8426,-0.1332,0.0320,-0.0383,1.1247
2025-01-27T11:04:42.409Z,-1.1870,0.8172,0.1648,-0.0298,-0.0258,1.0705
2025-01-27T11:04:42.419Z,-0.8257,0.5316,-0.0284,0.0068,0.0372,0.5969
2025-01-27T11:04:42.428Z,1.3410,-0.8842,-0.1513,0.0439,0.0308,0.8752
2025-01-27T11:04:42.439Z,0.1857,-0.1660,0.0846,-0.0149,-0.0236,1.1918
2025-01-27T11:04:42.449Z,-1.1985,0.8946,0.0127,-0.0136,-0.0236,0.7096
2025-01-27T11:04:42.459Z,0.3628,-0.2543,-0.0763,0.0309,0.0757,0.6507
2025-01-27T11:04:42.469Z,1.3311,-0.9829,-0.0105,0.0145,-0.0341,1.0227
2025-01-27T11:04:42.478Z,-0.9142,0.7100,0.0555,-0.0183,-0.0116,1.1271
2025-01-27T11:04:42.489Z,-0.8472,0.5890,0.0224,0.0137,0.0122,0.7214
2025-01-27T11:04:42.499Z,0.8606,-0.5726,-0.0659,0.0234,0.0366,0.7629
2025-01-27T11:04:42.508Z,0.5715,-0.4877,0.0708,-0.0072,-0.0015,1.2310
2025-01-27T11:04:42.519Z,-0.9864,0.8548,-0.0708,0.0024,-0.0524,0.8279
2025-01-27T11:04:42.528Z,-0.2637,0.0243,0.1135,-0.0021,0.0924,0.5625
2025-01-27T11:04:42.539Z,1.6758,-1.1221,-0.1527,0.0357,-0.0266,0.9694
2025-01-27T11:04:42.549Z,-0.5963,0.5326,0.0004,-0.0058,-0.0187,1.1730
2025-01-27T11:04:42.559Z,-1.2528,0.7110,0.1844,-0.0199,0.0123,0.7474
2025-01-27T11:04:42.569Z,0.8655,-0.4220,-0.2448,0.0509,0.0369,0.7523
2025-01-27T11:04:42.578Z,0.7062,-0.6483,0.1259,0.0026,-0.0091,1.1340
2025-01-27T11:04:42.589Z,-0.7987,0.6310,0.0432,-0.0211,-0.0375,0.9368
2025-01-27T11:04:42.599Z,-0.3993,0.3528,-0.0746,0.0186,0.0431,0.5132
2025-01-27T11:04:42.608Z,1.3554,-1.0941,0.0241,0.0295,0.0162,0.9246
2025-01-27T11:04:42.619Z,-0.0938,0.1818,-0.0575,-0.0046,-0.0426,1.2308
2025-01-27T11:04:42.628Z,-1.4698,1.0052,0.1256,-0.0178,0.0079,0.7724
2025-01-27T11:04:42.640Z,0.6475,-0.3980,-0.1398,0.0318,0.0480,0.6693
2025-01-27T11:04:42.649Z,1.1414,-0.8539,-0.0357,0.0163,-0.0099,1.1862
2025-01-27T11:04:42.658Z,-1.0134,0.7144,0.1030,-0.0238,-0.0468,1.0231
2025-01-27T11:04:42.669Z,-0.7221,0.5597,-0.0571,0.0055,0.0461,0.4179
2025-01-27T11:04:42.678Z,1.6901,-1.3028,-0.0439,0.0506,0.0272,0.9016
2025-01-27T11:04:42.689Z,-0.0344,0.1115,-0.0496,-0.0113,-0.0472,1.1559
2025-01-27T11:04:42.699Z,-1.5479,0.9590,0.2289,-0.0336,0.0230,0.8016
2025-01-27T11:04:42.708Z,0.7006,-0.2500,-0.2822,0.0607,0.0187,0.7452
2025-01-27T11:04:42.719Z,0.8153,-0.7672,0.1137,0.0017,-0.0019,1.1059
2025-01-27T11:04:42.728Z,-0.7796,0.5383,0.0633,-0.0313,-0.0301,1.0132
2025-01-27T11:04:42.739Z,-0.4872,0.5295,-0.1767,0.0266,0.0285,0.4889
2025-01-27T11:04:42.749Z,1.2102,-1.0885,0.1221,0.0255,0.0403,0.8571
2025-01-27T11:04:42.758Z,0.1913,-0.0020,-0.1285,-0.0095,-0.0413,1.1564
2025-01-27T11:04:42.769Z,-1.3205,0.9044,0.1574,-0.0101,0.0160,0.9239
2025-01-27T11:04:42.778Z,0.2637,-0.0542,-0.1370,0.0315,0.0234,0.6968
2025-01-27T11:04:42.789Z,1.0010,-0.8597,0.0530,0.0084,0.0097,1.0022
2025-01-27T11:04:42.799Z,-0.4203,0.3431,-0.0214,-0.0041,-0.0273,1.1101
2025-01-27T11:04:42.808Z,-0.7776,0.6347,-0.0181,0.0040,0.0072,0.5897
2025-01-27T11:04:42.819Z,0.8501,-0.7180,0.0226,0.0216,0.0566,0.7358
2025-01-27T11:04:42.828Z,0.6946,-0.4141,-0.1452,0.0134,-0.0393,1.1065
2025-01-27T11:04:42.839Z,-1.1471,0.7541,0.1816,-0.0197,0.0081,1.0440
2025-01-27T11:04:42.849Z,-0.2628,0.3470,-0.1262,0.0169,0.0058,0.6487
2025-01-27T11:04:42.858Z,1.0288,-0.8363,0.0196,0.0259,0.0197,0.8996
2025-01-27T11:04:42.869Z,-0.0186,0.0101,-0.0102,-0.0035,-0.0221,1.1529
2025-01-27T11:04:42.878Z,-0.9346,0.7341,0.0097,-0.0097,-0.0061,0.6728
2025-01-27T11:04:42.889Z,0.5028,-0.3860,-0.0258,0.0236,0.0626,0.6729
2025-01-27T11:04:42.899Z,1.0060,-0.7273,-0.0678,0.0192,-0.0367,1.0812
2025-01-27T11:04:42.908Z,-0.9959,0.6592,0.1763,-0.0228,-0.0024,1.1276
2025-01-27T11:04:42.919Z,-0.6169,0.5958,-0.1088,0.0114,-0.0034,0.6066
2025-01-27T11:04:42.928Z,1.0503,-0.8535,-0.0123,0.0274,0.0489,0.8469
2025-01-27T11:04:42.940Z,0.3543,-0.2970,-0.0039,0.0019,-0.0356,1.2670
2025-01-27T11:04:42.949Z,-1.3034,1.0123,0.0560,-0.0205,-0.0164,0.6687
2025-01-27T11:04:42.958Z,0.3899,-0.3530,-0.0145,0.0217,0.0862,0.6319
2025-01-27T11:04:42.969Z,1.5699,-1.0858,-0.1913,0.0434,-0.0667,1.0630
2025-01-27T11:04:42.978Z,-1.3265,0.8205,0.2885,-0.0432,0.0255,1.0876
2025-01-27T11:04:42.989Z,-0.5614,0.5576,-0.1415,0.0160,-0.0062,0.6632
2025-01-27T11:04:42.999Z,1.0304,-0.7082,-0.1022,0.0452,0.0357,0.8501
2025-01-27T11:04:43.008Z,0.1389,-0.3252,0.1888,-0.0249,-0.0131,1.2083
2025-01-27T11:04:43.019Z,-0.8664,0.8727,-0.1730,0.0008,-0.0279,0.7593
2025-01-27T11:04:43.028Z,0.1251,-0.1842,0.0997,0.0179,0.0861,0.6107
2025-01-27T11:04:43.039Z,1.4401,-1.0652,-0.1212,0.0250,-0.0497,1.0351
2025-01-27T11:04:43.049Z,-0.9517,0.6979,0.1006,-0.0252,0.0101,1.1453
2025-01-27T11:04:43.058Z,-0.8299,0.6946,-0.0374,0.0119,-0.0027,0.6904
2025-01-27T11:04:43.069Z,0.9948,-0.6995,-0.0826,0.0345,0.0422,0.8096
2025-01-27T11:04:43.078Z,0.3600,-0.3990,0.1003,-0.0098,-0.0200,1.1528
2025-01-27T11:04:43.089Z,-0.8843,0.7868,-0.0307,-0.0039,-0.0166,0.8741
2025-01-27T11:04:43.099Z,-0.0821,0.0456,0.0168,0.0211,0.0495,0.5713
2025-01-27T11:04:43.108Z,1.3317,-1.0558,-0.0615,0.0207,-0.0246,0.9119
2025-01-27T11:04:43.119Z,-0.5370,0.4143,0.0220,-0.0151,0.0096,1.1718
2025-01-27T11:04:43.128Z,-0.9211,0.7027,0.0445,0.0060,-0.0135,0.8040
2025-01-27T11:04:43.139Z,0.5159,-0.3390,-0.1084,0.0220,0.0471,0.7118
2025-01-27T11:04:43.149Z,0.7556,-0.7040,0.0879,0.0020,-0.0098,1.1411
2025-01-27T11:04:43.158Z,-0.6800,0.6481,-0.0585,-0.0004,-0.0384,0.9916
2025-01-27T11:04:43.169Z,-0.6163,0.3807,0.0946,-0.0043,0.0503,0.4780
2025-01-27T11:04:43.178Z,1.5466,-1.1407,-0.1636,0.0329,-0.0107,0.8562
2025-01-27T11:04:43.189Z,-0.2039,0.1571,0.0168,-0.0047,-0.0065,1.2300
2025-01-27T11:04:43.199Z,-1.3216,0.9507,0.1253,-0.0133,-0.0058,0.8352
2025-01-27T11:04:43.208Z,0.4992,-0.2188,-0.2044,0.0280,0.0446,0.6571
2025-01-27T11:04:43.219Z,1.0227,-0.9644,0.1065,0.0112,-0.0098,1.1128
2025-01-27T11:04:43.228Z,-0.6851,0.6064,-0.0233,-0.0121,-0.0320,1.0957
2025-01-27T11:04:43.240Z,-0.8560,0.6413,0.0527,0.0006,0.0416,0.4133
2025-01-27T11:04:43.249Z,1.5505,-1.1856,-0.0856,0.0452,0.0155,0.8343
2025-01-27T11:04:43.258Z,0.1030,-0.0668,-0.0338,-0.0092,-0.0276,1.1799
2025-01-27T11:04:43.269Z,-1.4483,0.9957,0.1876,-0.0162,0.0195,0.8741
2025-01-27T11:04:43.278Z,0.4926,-0.1456,-0.2588,0.0358,0.0212,0.7377
2025-01-27T11:04:43.289Z,0.8164,-0.8330,0.1685,0.0034,-0.0009,1.0340
2025-01-27T11:04:43.299Z,-0.5409,0.4773,-0.0466,-0.0134,-0.0204,1.0492
2025-01-27T11:04:43.308Z,-0.5486,0.4510,-0.0272,0.0163,0.0222,0.5900
2025-01-27T11:04:43.319Z,0.9678,-0.8032,0.0071,0.0227,0.0227,0.8024
2025-01-27T11:04:43.328Z,0.2514,-0.1726,-0.0417,-0.0138,-0.0149,1.0480
2025-01-27T11:04:43.339Z,-0.8754,0.6681,0.0960,0.0072,0.0133,1.0339
2025-01-27T11:04:43.349Z,-0.0624,0.1607,-0.1424,0.0229,-0.0071,0.6956
2025-01-27T11:04:43.358Z,0.6185,-0.7069,0.1680,-0.0042,0.0450,0.9046
2025-01-27T11:04:43.369Z,0.2302,0.0106,-0.2053,0.0133,-0.0490,1.2381
2025-01-27T11:04:43.378Z,-1.1826,0.8349,0.1281,-0.0006,0.0140,0.5775
2025-01-27T11:04:43.391Z,1.2106,-0.7276,-0.2429,0.0116,0.0593,0.6513
2025-01-27T11:04:43.399Z,1.2106,-0.7276,-0.2429,0.0221,-0.0590,1.1604
2025-01-27T11:04:43.408Z,-1.5789,1.0305,0.3200,-0.0125,0.0247,1.0503
2025-01-27T11:04:43.419Z,-0.1927,0.2788,-0.1905,0.0109,-0.0129,0.5826
2025-01-27T11:04:43.428Z,1.1910,-0.9866,0.0175,0.0228,0.0393,0.9646
2025-01-27T11:04:43.441Z,-1.2335,0.9419,0.0531,-0.0053,-0.0539,1.2285
2025-01-27T11:04:43.449Z,-1.2335,0.9419,0.0531,-0.0076,0.0295,0.5755
2025-01-27T11:04:43.458Z,0.9642,-0.7836,-0.0583,0.0245,0.0433,0.6724
2025-01-27T11:04:43.470Z,-1.5300,1.0397,0.2312,0.0073,-0.0434,1.1623
2025-01-27T11:04:43.478Z,-1.5300,1.0397,0.2312,-0.0156,0.0192,1.0496
2025-01-27T11:04:43.491Z,1.0695,-0.9889,0.0835,0.0259,0.0017,0.5930
2025-01-27T11:04:43.499Z,1.0695,-0.9889,0.0835,0.0166,0.0331,0.8944
2025-01-27T11:04:43.508Z,0.0115,0.0301,-0.0403,-0.0115,-0.0340,1.2211
2025-01-27T11:04:43.520Z,0.5635,-0.5379,0.0135,0.0088,0.0096,0.6871
2025-01-27T11:04:43.528Z,0.5635,-0.5379,0.0135,0.0155,0.0533,0.6319
2025-01-27T11:04:43.541Z,-1.1323,0.8703,0.1088,0.0043,-0.0473,1.0354
2025-01-27T11:04:43.548Z,-1.1323,0.8703,0.1088,-0.0052,0.0229,1.1080
2025-01-27T11:04:43.558Z,-0.4570,0.3872,-0.0772,0.0196,-0.0164,0.6996
2025-01-27T11:04:43.569Z,0.3116,-0.2245,-0.0721,0.0104,0.0428,0.8216
2025-01-27T11:04:43.579Z,-0.7849,0.6551,0.0003,-0.0056,-0.0262,1.1261
2025-01-27T11:04:43.591Z,-0.0073,-0.1096,0.0430,0.0122,0.0067,0.8757
2025-01-27T11:04:43.599Z,1.1970,-0.9140,-0.0899,0.0098,0.0351,0.5924
2025-01-27T11:04:43.609Z,-0.5283,0.4994,-0.0125,0.0049,-0.0165,0.9395
2025-01-27T11:04:43.619Z,-0.8957,0.6437,0.0515,0.0054,-0.0020,1.1769
2025-01-27T11:04:43.629Z,0.6497,-0.5573,-0.0055,0.0131,-0.0026,0.7385
2025-01-27T11:04:43.641Z,0.6558,-0.4492,-0.0889,0.0093,0.0432,0.7716
2025-01-27T11:04:43.649Z,-0.9155,0.7131,0.0740,0.0040,-0.0274,1.1593
2025-01-27T11:04:43.659Z,-0.1732,0.0391,0.0233,0.0104,-0.0096,0.9167
2025-01-27T11:04:43.669Z,1.4051,-1.0901,-0.0733,0.0076,0.0320,0.4984
2025-01-27T11:04:43.678Z,-0.4926,0.4852,-0.0390,0.0125,-0.0162,0.9262
2025-01-27T11:04:43.691Z,-1.0367,0.7030,0.1156,-0.0015,-0.0016,1.1822
2025-01-27T11:04:43.699Z,0.6081,-0.4330,-0.0846,0.0099,-0.0011,0.7839
2025-01-27T11:04:43.709Z,0.7957,-0.6781,0.0224,0.0035,0.0457,0.7020
2025-01-27T11:04:43.719Z,-0.7886,0.7603,-0.0415,0.0034,-0.0113,1.1470
2025-01-27T11:04:43.729Z,-0.5471,0.2481,0.1091,0.0052,-0.0238,0.9972
2025-01-27T11:04:43.740Z,1.5092,-1.1327,-0.1259,0.0127,0.0450,0.4650
2025-01-27T11:04:43.749Z,-0.2358,0.2491,-0.0312,0.0057,-0.0061,0.8734
2025-01-27T11:04:43.758Z,-1.2784,0.9303,0.0910,0.0004,-0.0055,1.2296
2025-01-27T11:04:43.769Z,0.5691,-0.4985,-0.0499,0.0137,-0.0036,0.8001
2025-01-27T11:04:43.778Z,0.9217,-0.7231,-0.0279,0.0052,0.0447,0.7053
2025-01-27T11:04:43.790Z,-0.7688,0.7041,-0.0059,-0.0021,-0.0258,1.0922
2025-01-27T11:04:43.799Z,-0.6059,0.3200,0.0468,0.0122,-0.0093,1.0789
2025-01-27T11:04:43.808Z,1.2902,-1.0554,-0.0109,0.0118,0.0166,0.4640
2025-01-27T11:04:43.819Z,0.1155,0.0863,-0.1460,0.0082,0.0207,0.8360
2025-01-27T11:04:43.828Z,-1.2498,0.8464,0.1684,0.0001,-0.0263,1.1705
2025-01-27T11:04:43.840Z,0.2817,-0.2340,-0.0789,0.0214,0.0105,0.8859
2025-01-27T11:04:43.849Z,0.9981,-0.8370,0.0186,0.0021,0.0337,0.6700
2025-01-27T11:04:43.858Z,-0.6111,0.6647,-0.0955,0.0053,-0.0058,1.0792
2025-01-27T11:04:43.869Z,-0.7320,0.3600,0.1358,0.0076,-0.0235,1.0865
2025-01-27T11:04:43.878Z,1.1963,-0.9028,-0.0817,0.0154,0.0250,0.5464
2025-01-27T11:04:43.889Z,0.2409,-0.0714,-0.0859,0.0004,0.0192,0.7987
2025-01-27T11:04:43.899Z,-1.0788,0.7770,0.1144,-0.0005,-0.0180,1.1080
2025-01-27T11:04:43.908Z,0.0572,-0.0760,-0.0356,0.0207,0.0061,0.9860
2025-01-27T11:04:43.920Z,0.7189,-0.6405,0.0427,0.0014,0.0244,0.9031
2025-01-27T11:04:43.928Z,0.0472,0.1596,-0.1320,0.0014,0.0244,0.9031
2025-01-27T11:04:43.939Z,-0.9504,0.5997,0.1153,0.0083,-0.0272,1.1900
2025-01-27T11:04:43.949Z,0.5850,-0.6329,0.0319,0.0150,0.0050,0.6344
2025-01-27T11:04:43.959Z,1.0613,-0.5888,-0.1862,-0.0012,0.0624,0.6881
2025-01-27T11:04:43.969Z,-1.2105,0.8838,0.1605,0.0253,0.0234,1.0497
2025-01-27T11:04:43.978Z,-0.2703,0.1209,-0.0408,0.0253,0.0234,1.0497
2025-01-27T11:04:43.989Z,0.8339,-0.6950,0.0337,0.0003,-0.0108,0.6775
2025-01-27T11:04:43.999Z,0.0123,0.1440,-0.1369,0.0064,-0.0143,1.1298
2025-01-27T11:04:44.008Z,-0.7283,0.4850,0.0805,0.0064,-0.0143,1.1298
2025-01-27T11:04:44.019Z,0.2329,-0.3412,0.0396,0.0014,0.0565,0.6952
2025-01-27T11:04:44.029Z,0.9945,-0.6055,-0.1466,-0.0019,-0.0372,0.9566
2025-01-27T11:04:44.039Z,-0.7187,0.5840,0.0598,-0.0019,-0.0372,0.9566
2025-01-27T11:04:44.049Z,-0.5692,0.3233,0.0136,0.0016,-0.0275,0.7254
2025-01-27T11:04:44.058Z,0.4660,-0.4443,0.0542,0.0016,-0.0275,0.7254
2025-01-27T11:04:44.069Z,0.6047,-0.3229,-0.1473,0.0034,-0.0207,1.1548
2025-01-27T11:04:44.079Z,-0.7810,0.6213,0.0609,0.0169,-0.0188,0.9098
2025-01-27T11:04:44.090Z,-0.3378,0.0102,0.0913,0.0055,0.0649,0.5135
2025-01-27T11:04:44.099Z,1.5569,-1.1018,-0.1132,-0.0067,-0.0191,0.9953
2025-01-27T11:04:44.108Z,-0.5435,0.6263,-0.0589,-0.0067,-0.0191,0.9953
2025-01-27T11:04:44.119Z,-1.2894,0.7586,0.1367,0.0218,0.0025,0.6259
2025-01-27T11:04:44.128Z,1.0053,-0.8672,-0.0018,-0.0054,0.0526,0.7521
2025-01-27T11:04:44.140Z,0.7809,-0.4249,-0.1662,-0.0027,-0.0327,1.2826
2025-01-27T11:04:44.149Z,-1.4002,1.1129,0.0820,0.0323,-0.0172,0.8184
2025-01-27T11:04:44.158Z,-0.0017,-0.3696,0.1380,0.0323,-0.0172,0.8184
2025-01-27T11:04:44.169Z,1.7336,-1.1577,-0.1581,-0.0184,-0.0423,1.0296
2025-01-27T11:04:44.178Z,-1.0055,0.9665,-0.0418,0.0319,0.0117,1.1559
2025-01-27T11:04:44.189Z,-0.8754,0.3667,0.1439,0.0162,-0.0049,0.6843
2025-01-27T11:04:44.199Z,0.9469,-0.7406,-0.0196,-0.0213,0.0448,0.8312
2025-01-27T11:04:44.209Z,0.3868,-0.1582,-0.1468,0.0131,-0.0202,1.1321
2025-01-27T11:04:44.219Z,-0.8495,0.6904,0.0743,0.0286,-0.0113,0.8878
2025-01-27T11:04:44.228Z,-0.0625,-0.2792,0.0936,-0.0088,0.0304,0.5770
2025-01-27T11:04:44.240Z,1.1352,-0.6932,-0.1427,-0.0047,-0.0165,0.8875
2025-01-27T11:04:44.248Z,-0.4171,0.4788,-0.0228,0.0225,0.0109,1.0550
2025-01-27T11:04:44.258Z,-0.6350,0.2515,0.1288,0.0225,0.0109,1.0550
2025-01-27T11:04:44.269Z,0.1970,-0.0955,-0.0613,-0.0019,0.0215,0.7533
2025-01-27T11:04:44.278Z,0.4756,-0.3907,-0.0348,0.0185,0.0184,1.0102
2025-01-27T11:04:44.289Z,-0.1119,0.2077,-0.0282,0.0037,-0.0413,1.0738
2025-01-27T11:04:44.298Z,-0.8131,0.4026,0.1029,0.0161,0.0318,0.5291
2025-01-27T11:04:44.308Z,0.9832,-0.7996,-0.0246,0.0161,0.0318,0.5291
2025-01-27T11:04:44.319Z,0.5127,-0.1249,-0.1005,-0.0058,-0.0160,1.2466
2025-01-27T11:04:44.328Z,-1.3846,0.9359,0.0932,0.0328,-0.0118,0.9457
2025-01-27T11:04:44.339Z,-0.0470,-0.1234,0.0591,-0.0005,0.0532,0.6323
2025-01-27T11:04:44.348Z,1.3306,-1.0251,-0.0746,-0.0143,-0.0068,1.0262
2025-01-27T11:04:44.359Z,-0.4904,0.6660,-0.1226,0.0256,-0.0281,1.1378
2025-01-27T11:04:44.369Z,-0.9750,0.4178,0.1575,0.0223,0.0124,0.5256
2025-01-27T11:04:44.378Z,1.1264,-0.9772,0.0196,-0.0221,0.0367,0.8016
2025-01-27T11:04:44.390Z,0.4497,0.0200,-0.2482,0.0022,-0.0262,1.0737
2025-01-27T11:04:44.399Z,-1.1211,0.6945,0.1711,0.0454,0.0108,0.9890
2025-01-27T11:04:44.409Z,-0.0107,-0.1388,0.0282,-0.0207,0.0003,0.7432
2025-01-27T11:04:44.419Z,0.6685,-0.4848,-0.0660,0.0074,0.0203,0.8956
2025-01-27T11:04:44.428Z,-0.0053,0.1885,-0.0943,0.0245,-0.0167,1.0996
2025-01-27T11:04:44.439Z,-0.6533,0.2538,0.1626,-0.0015,-0.0055,0.7263
2025-01-27T11:04:44.449Z,0.2730,-0.3415,-0.0116,0.0027,0.0514,0.6541
2025-01-27T11:04:44.458Z,0.9393,-0.4761,-0.1507,0.0033,-0.0151,1.0925
2025-01-27T11:04:44.469Z,-0.8183,0.6218,0.0912,0.0170,-0.0209,1.1218
2025-01-27T11:04:44.478Z,-0.7576,0.3699,0.0549,0.0085,0.0086,0.5897
2025-01-27T11:04:44.489Z,1.1259,-0.9293,-0.0276,-0.0076,0.0371,0.8634
2025-01-27T11:04:44.499Z,0.3468,-0.0012,-0.1423,0.0024,-0.0383,1.3085
2025-01-27T11:04:44.508Z,-1.4703,0.9904,0.0860,0.0340,-0.0168,0.5842
2025-01-27T11:04:44.519Z,0.6003,-0.8624,0.1197,-0.0075,0.1011,0.6451
2025-01-27T11:04:44.528Z,1.5422,-0.7954,-0.2742,-0.0311,-0.0662,1.1580
2025-01-27T11:04:44.539Z,-1.5814,1.2605,0.0864,0.0613,0.0067,1.0010
2025-01-27T11:04:44.549Z,-0.4086,-0.1356,0.1551,-0.0029,0.0228,0.6285
2025-01-27T11:04:44.558Z,1.2332,-0.7828,-0.0964,-0.0299,0.0068,0.9505
2025-01-27T11:04:44.569Z,-0.3242,0.4669,-0.1809,0.0494,-0.0070,1.1184
2025-01-27T11:04:44.578Z,-0.7022,0.2894,0.1923,0.0099,-0.0154,0.7320
2025-01-27T11:04:44.589Z,0.4079,-0.5561,0.0567,-0.0280,0.0517,0.6664
2025-01-27T11:04:44.599Z,0.8664,-0.3379,-0.2412,0.0219,-0.0134,1.0091
2025-01-27T11:04:44.608Z,-0.6086,0.4436,0.1152,0.0227,-0.0202,1.1416
2025-01-27T11:04:44.619Z,-0.8379,0.3591,0.1190,-0.0078,0.0062,0.7013
2025-01-27T11:04:44.628Z,0.7760,-0.5390,-0.1015,0.0106,0.0348,0.8003
2025-01-27T11:04:44.639Z,0.5952,-0.2673,-0.0939,0.0069,-0.0203,1.1721
2025-01-27T11:04:44.648Z,-1.0040,0.6311,0.1126,0.0138,-0.0200,0.8464
2025-01-27T11:04:44.659Z,-0.1047,-0.1367,0.0421,0.0126,0.0544,0.6002
2025-01-27T11:04:44.669Z,1.3533,-0.9231,-0.0882,-0.0125,-0.0232,0.9450
2025-01-27T11:04:44.678Z,-0.5922,0.6543,-0.0614,0.0242,-0.0020,1.1081
2025-01-27T11:04:44.689Z,-0.8461,0.3378,0.1096,0.0193,-0.0002,0.7960
2025-01-27T11:04:44.698Z,0.5396,-0.4265,0.0069,-0.0154,0.0273,0.7988
2025-01-27T11:04:44.709Z,0.4537,-0.2359,-0.1363,0.0149,0.0072,1.0387
2025-01-27T11:04:44.719Z,-0.4312,0.3583,0.0354,0.0202,-0.0305,0.9904
2025-01-27T11:04:44.728Z,-0.4441,0.1003,0.1225,-0.0067,0.0169,0.5761
2025-01-27T11:04:44.740Z,0.9415,-0.7421,-0.0724,0.0015,0.0228,0.8134
2025-01-27T11:04:44.749Z,0.2029,0.1439,-0.1190,0.0105,-0.0224,1.2134
2025-01-27T11:04:44.758Z,-1.2046,0.6526,0.1475,0.0180,-0.0166,0.8524
2025-01-27T11:04:44.769Z,0.0653,-0.1865,0.0294,-0.0008,0.0674,0.6886
2025-01-27T11:04:44.778Z,1.2458,-0.8175,-0.1133,-0.0070,-0.0094,1.0929
2025-01-27T11:04:44.789Z,-0.6910,0.6754,-0.0239,0.0264,-0.0355,1.0506
2025-01-27T11:04:44.799Z,-0.8286,0.2463,0.1640,0.0138,0.0298,0.4723
2025-01-27T11:04:44.808Z,1.3493,-1.0422,-0.0441,-0.0192,0.0170,0.8522
2025-01-27T11:04:44.819Z,0.0847,0.3143,-0.2183,0.0205,-0.0258,1.0820
2025-01-27T11:04:44.828Z,-1.1521,0.4802,0.2094,0.0314,0.0065,0.9262
2025-01-27T11:04:44.839Z,0.2101,-0.2004,0.0188,-0.0291,0.0114,0.7087
2025-01-27T11:04:44.848Z,0.7057,-0.4191,-0.1403,0.0203,0.0323,1.0309
2025-01-27T11:04:44.858Z,-0.1863,0.2454,-0.0295,0.0215,-0.0502,1.1249
2025-01-27T11:04:44.869Z,-0.9300,0.4706,0.1744,-0.0084,0.0107,0.4922
2025-01-27T11:04:44.878Z,0.9546,-0.9200,-0.0409,0.0093,0.0591,0.7633
2025-01-27T11:04:44.889Z,0.7848,-0.1244,-0.2238,-0.0022,-0.0476,1.2388
2025-01-27T11:04:44.899Z,-1.6023,0.9158,0.2162,0.0283,-0.0049,0.9708
2025-01-27T11:04:44.908Z,-0.1650,-0.0940,0.0406,0.0016,0.0395,0.5914
2025-01-27T11:04:44.919Z,1.4709,-0.9550,-0.1232,-0.0134,0.0144,1.0063
2025-01-27T11:04:44.928Z,-0.3929,0.4490,-0.0885,0.0310,-0.0408,1.2340
2025-01-27T11:04:44.939Z,-1.3305,0.7017,0.1890,0.0094,-0.0042,0.4833
2025-01-27T11:04:44.949Z,1.0659,-1.0839,0.0578,-0.0132,0.0842,0.7354
2025-01-27T11:04:44.958Z,1.0551,-0.2498,-0.3434,0.0029,-0.0557,1.1976
2025-01-27T11:04:44.969Z,-1.6483,1.0385,0.2050,0.0435,-0.0065,0.9701
2025-01-27T11:04:44.978Z,-0.2530,-0.2205,0.1532,-0.0216,0.0300,0.6116
2025-01-27T11:04:44.989Z,1.4272,-0.7770,-0.2328,-0.0060,0.0037,0.9649
2025-01-27T11:04:44.999Z,-0.4091,0.4520,-0.0706,0.0426,-0.0256,1.1276
2025-01-27T11:04:45.008Z,-0.9562,0.3440,0.2249,-0.0064,0.0007,0.6414
2025-01-27T11:04:45.019Z,0.7056,-0.5950,-0.0648,-0.0122,0.0662,0.7502
2025-01-27T11:04:45.028Z,0.7696,-0.2677,-0.2230,0.0248,-0.0237,1.0522
2025-01-27T11:04:45.039Z,-0.9489,0.5151,0.1911,0.0086,-0.0030,1.0739
2025-01-27T11:04:45.049Z,-0.4961,0.1806,0.0377,-0.0061,0.0047,0.6480
2025-01-27T11:04:45.058Z,0.8921,-0.5894,-0.1219,0.0184,0.0333,0.8815
2025-01-27T11:04:45.069Z,0.1987,-0.0454,-0.0379,0.0079,-0.0253,1.1857
2025-01-27T11:04:45.078Z,-1.0291,0.6554,0.0788,0.0089,-0.0179,0.7107
2025-01-27T11:04:45.089Z,0.2728,-0.4226,0.0300,0.0130,0.0789,0.6540
2025-01-27T11:04:45.099Z,1.2773,-0.7558,-0.1420,-0.0074,-0.0333,0.9999
2025-01-27T11:04:45.108Z,-0.8824,0.7140,0.0249,0.0220,-0.0083,1.0943
2025-01-27T11:04:45.119Z,-0.7727,0.2882,0.1101,0.0082,0.0065,0.7187
2025-01-27T11:04:45.128Z,0.7674,-0.5281,-0.0584,-0.0118,0.0148,0.8219
2025-01-27T11:04:45.139Z,0.3100,-0.1455,-0.1220,0.0228,0.0016,1.0934
2025-01-27T11:04:45.149Z,-0.6217,0.3907,0.0819,0.0099,-0.0307,0.8946
2025-01-27T11:04:45.158Z,-0.2336,-0.0084,0.0713,-0.0069,0.0457,0.6182
2025-01-27T11:04:45.169Z,1.0637,-0.7623,-0.1274,0.0102,0.0169,0.9126
2025-01-27T11:04:45.178Z,-0.1545,0.3154,-0.0623,0.0092,-0.0308,1.1926
2025-01-27T11:04:45.190Z,-1.1647,0.5915,0.1615,0.0051,-0.0060,0.8046
2025-01-27T11:04:45.199Z,0.3834,-0.3171,-0.0370,0.0072,0.0439,0.6542
2025-01-27T11:04:45.208Z,1.0998,-0.7002,-0.1050,0.0079,0.0071,1.2368
2025-01-27T11:04:45.219Z,-0.9063,0.7744,0.0015,0.0106,-0.0761,0.9386
2025-01-27T11:04:45.228Z,-0.8604,0.2413,0.1845,0.0078,0.0677,0.4202
2025-01-27T11:04:45.240Z,1.9007,-1.4022,-0.1307,-0.0084,0.0207,0.9734
2025-01-27T11:04:45.249Z,-0.2372,0.6704,-0.1972,0.0185,-0.0696,1.2165
2025-01-27T11:04:45.258Z,-1.7925,0.7600,0.3080,0.0209,0.0316,0.7115
2025-01-27T11:04:45.269Z,0.9378,-0.7351,-0.0326,-0.0228,0.0589,0.7843
2025-01-27T11:04:45.278Z,0.9564,-0.3587,-0.2602,0.0143,-0.0337,1.1090
2025-01-27T11:04:45.291Z,-0.2706,-0.0269,0.1057,0.0274,-0.0070,0.9551
2025-01-27T11:04:45.299Z,-0.2706,-0.0269,0.1057,-0.0221,0.0221,0.5584
2025-01-27T11:04:45.308Z,1.1754,-0.7156,-0.1718,0.0128,0.0165,0.8472
2025-01-27T11:04:45.319Z,-0.1148,0.2155,-0.0610,0.0273,-0.0179,1.1157
2025-01-27T11:04:45.328Z,-0.9535,0.4339,0.2219,-0.0116,-0.0002,0.9556
2025-01-27T11:04:45.341Z,0.9301,-0.7328,-0.0239,0.0117,0.0233,0.6391
2025-01-27T11:04:45.349Z,0.9301,-0.7328,-0.0239,0.0202,0.0353,1.0608
2025-01-27T11:04:45.358Z,-0.1936,0.2345,-0.0216,-0.0096,-0.0600,1.1198
2025-01-27T11:04:45.369Z,-1.1597,0.7137,0.0691,0.0137,0.0211,0.4522
2025-01-27T11:04:45.378Z,1.1355,-1.0810,0.0254,0.0121,0.0565,0.8097
2025-01-27T11:04:45.391Z,-1.5796,0.8854,0.1971,-0.0023,-0.0549,1.1917
2025-01-27T11:04:45.399Z,-1.5796,0.8854,0.1971,0.0201,-0.0069,0.8835
2025-01-27T11:04:45.408Z,-0.0200,-0.1541,0.0363,-0.0018,0.0627,0.6805
2025-01-27T11:04:45.420Z,-0.6842,0.5913,-0.0306,-0.0020,-0.0083,1.0562
2025-01-27T11:04:45.428Z,-0.6842,0.5913,-0.0306,0.0235,-0.0341,1.0737
2025-01-27T11:04:45.441Z,1.0539,-0.7390,-0.1036,-0.0034,0.0180,0.5830
2025-01-27T11:04:45.449Z,1.0539,-0.7390,-0.1036,-0.0038,0.0400,0.7753
2025-01-27T11:04:45.458Z,0.4615,-0.1067,-0.1703,0.0259,-0.0244,1.0958
2025-01-27T11:04:45.469Z,-0.2690,0.1516,-0.0234,0.0014,-0.0047,1.0122
2025-01-27T11:04:45.478Z,-0.2690,0.1516,-0.0234,-0.0018,0.0121,0.6840
2025-01-27T11:04:45.491Z,0.0260,0.0140,0.0145,0.0214,0.0272,0.9300
2025-01-27T11:04:45.499Z,-1.0041,0.6420,0.0724,0.0020,-0.0321,1.1687
2025-01-27T11:04:45.509Z,0.5153,-0.5602,0.0197,-0.0023,-0.0113,0.6353
2025-01-27T11:04:45.519Z,1.0880,-0.6212,-0.1729,0.0125,0.0761,0.6735
2025-01-27T11:04:45.529Z,-1.1326,0.7502,0.0974,0.0089,-0.0255,1.1174
2025-01-27T11:04:45.540Z,-0.7306,0.3300,0.0820,-0.0008,-0.0212,1.0793
2025-01-27T11:04:45.549Z,1.2360,-0.8941,-0.1072,0.0057,0.0166,0.5959
2025-01-27T11:04:45.559Z,0.1137,0.0310,-0.0885,0.0088,0.0308,0.8843
2025-01-27T11:04:45.569Z,-1.1511,0.6896,0.1199,0.0080,-0.0321,1.1667
2025-01-27T11:04:45.579Z,0.3748,-0.3960,-0.0046,0.0024,-0.0124,0.7031
2025-01-27T11:04:45.591Z,1.1991,-0.7285,-0.1578,0.0061,0.0701,0.6256
2025-01-27T11:04:45.599Z,-0.9227,0.6984,0.0620,0.0161,-0.0118,1.0950
2025-01-27T11:04:45.608Z,-0.9504,0.4798,0.1237,0.0057,-0.0338,1.1270
2025-01-27T11:04:45.619Z,1.1305,-0.7788,-0.1188,-0.0026,0.0248,0.6017
2025-01-27T11:04:45.628Z,0.4490,-0.2209,-0.0611,0.0172,0.0414,0.8314
2025-01-27T11:04:45.640Z,-1.2933,0.7898,0.1304,0.0110,-0.0313,1.2148
2025-01-27T11:04:45.649Z,0.0960,-0.2158,0.0081,-0.0045,-0.0238,0.7689
2025-01-27T11:04:45.658Z,1.5075,-0.9862,-0.1477,0.0053,0.0798,0.5731
2025-01-27T11:04:45.669Z,-0.8354,0.6605,0.0170,0.0206,-0.0096,1.0783
2025-01-27T11:04:45.679Z,-1.1849,0.5890,0.1620,0.0027,-0.0493,1.1189
2025-01-27T11:04:45.690Z,1.1790,-0.7806,-0.1630,-0.0030,0.0298,0.6382
2025-01-27T11:04:45.699Z,0.4665,-0.2532,-0.0564,0.0202,0.0368,0.8343
2025-01-27T11:04:45.708Z,-1.3391,0.8189,0.1355,0.0087,-0.0307,1.2335
2025-01-27T11:04:45.719Z,0.1310,-0.2045,-0.0107,-0.0060,-0.0230,0.7782
2025-01-27T11:04:45.728Z,1.5028,-1.0303,-0.1265,0.0118,0.0642,0.5545
2025-01-27T11:04:45.740Z,-0.8084,0.6344,0.0129,0.0194,-0.0103,1.0325
2025-01-27T11:04:45.749Z,-1.1955,0.6569,0.1447,-0.0006,-0.0375,1.1631
2025-01-27T11:04:45.758Z,1.0394,-0.6904,-0.1414,-0.0036,0.0240,0.6924
2025-01-27T11:04:45.770Z,0.6208,-0.4238,-0.0568,0.0082,-0.0146,1.1969
2025-01-27T11:04:45.778Z,-1.1225,0.7275,0.0906,0.0082,-0.0146,1.1969
2025-01-27T11:04:45.790Z,-0.3063,0.1343,-0.0053,-0.0049,-0.0364,0.9092
2025-01-27T11:04:45.799Z,1.5232,-1.1285,-0.0607,0.0054,0.0474,0.4806
2025-01-27T11:04:45.808Z,-0.3717,0.4128,-0.1011,0.0155,0.0125,0.9458
2025-01-27T11:04:45.820Z,-1.3149,0.6508,0.2354,-0.0066,0.0178,0.8127
2025-01-27T11:04:45.828Z,0.5800,-0.3197,-0.1634,-0.0066,0.0178,0.8127
2025-01-27T11:04:45.840Z,0.9214,-0.7171,-0.0032,0.0221,0.0340,0.6686
2025-01-27T11:04:45.849Z,-0.7728,0.5827,0.0270,0.0131,0.0110,1.1499
2025-01-27T11:04:45.858Z,-0.8104,0.5083,0.0462,-0.0031,-0.0553,1.0351
2025-01-27T11:04:45.869Z,1.4566,-1.1868,-0.0212,0.0213,0.0395,0.8891
2025-01-27T11:04:45.878Z,0.1392,0.1330,-0.1727,0.0213,0.0395,0.8891
2025-01-27T11:04:45.889Z,-1.5687,0.8283,0.2812,0.0161,-0.0590,1.1783
2025-01-27T11:04:45.899Z,0.3867,-0.1827,-0.1780,-0.0212,0.0152,0.8409
2025-01-27T11:04:45.908Z,1.1054,-0.7822,-0.0577,0.0232,0.0437,0.6877
2025-01-27T11:04:45.919Z,-0.7686,0.4589,0.1113,-0.0166,-0.0371,1.0937
2025-01-27T11:04:45.929Z,-0.8129,0.6107,-0.0241,0.0057,0.0199,0.4686
2025-01-27T11:04:45.939Z,1.2752,-1.0593,-0.0149,0.0057,0.0199,0.4686
2025-01-27T11:04:45.949Z,0.4119,-0.1584,-0.1345,0.0102,-0.0546,1.1794
2025-01-27T11:04:45.958Z,-1.5448,0.9545,0.1892,0.0102,-0.0546,1.1794
2025-01-27T11:04:45.969Z,0.1581,-0.1220,-0.0638,0.0233,0.0393,0.7292
2025-01-27T11:04:45.979Z,1.1269,-0.7705,-0.1225,0.0237,-0.0163,0.9647
2025-01-27T11:04:45.990Z,-0.5957,0.2943,0.1197,-0.0176,-0.0015,1.0909
2025-01-27T11:04:45.999Z,-0.6205,0.5191,-0.0464,0.0126,-0.0083,0.6476
2025-01-27T11:04:46.009Z,0.6416,-0.5451,-0.0008,0.0126,-0.0083,0.6476
2025-01-27T11:04:46.019Z,0.6046,-0.4620,-0.0429,0.0055,-0.0150,1.1039
2025-01-27T11:04:46.028Z,-0.9059,0.6842,0.0121,0.0041,-0.0265,1.0592
2025-01-27T11:04:46.040Z,-0.5978,0.3544,0.0641,0.0006,0.0214,0.6466
2025-01-27T11:04:46.049Z,1.0761,-0.8151,-0.0806,0.0162,0.0205,0.8671
2025-01-27T11:04:46.058Z,0.1123,-0.0512,-0.0680,0.0162,0.0205,0.8671
2025-01-27T11:04:46.069Z,-1.1149,0.6882,0.1507,-0.0146,-0.0147,0.6861
2025-01-27T11:04:46.078Z,0.3940,-0.3307,-0.0542,0.0109,0.0778,0.6782
2025-01-27T11:04:46.089Z,1.1081,-0.7106,-0.1391,0.0332,-0.0298,1.0623
2025-01-27T11:04:46.099Z,-0.9817,0.5948,0.1557,-0.0231,-0.0096,1.0973
2025-01-27T11:04:46.109Z,-0.7133,0.5061,-0.0059,-0.0231,-0.0096,1.0973
2025-01-27T11:04:46.119Z,1.0922,-0.8040,-0.1114,0.0362,0.0252,0.8999
2025-01-27T11:04:46.128Z,0.0926,-0.1217,0.0176,-0.0007,-0.0256,1.1419
2025-01-27T11:04:46.140Z,-1.0496,0.6886,0.0808,-0.0166,-0.0065,0.7446
2025-01-27T11:04:46.148Z,0.3555,-0.2327,-0.1044,0.0298,0.0594,0.6582
2025-01-27T11:04:46.158Z,1.0558,-0.8103,-0.0292,0.0298,0.0594,0.6582
2025-01-27T11:04:46.169Z,-0.7670,0.4916,0.0675,-0.0187,-0.0061,1.1582
2025-01-27T11:04:46.178Z,-0.8213,0.6350,-0.0141,0.0140,-0.0061,0.7182
2025-01-27T11:04:46.190Z,0.6342,-0.5359,-0.0346,0.0129,0.0422,0.7198
2025-01-27T11:04:46.198Z,0.7105,-0.5925,-0.0098,0.0061,-0.0036,1.2403
2025-01-27T11:04:46.208Z,-0.9859,0.8394,-0.0551,0.0061,-0.0036,1.2403
2025-01-27T11:04:46.219Z,-0.5156,0.1683,0.1576,-0.0092,0.0808,0.4911
2025-01-27T11:04:46.228Z,1.8137,-1.2592,-0.2064,0.0405,-0.0093,1.0062
2025-01-27T11:04:46.239Z,-0.5871,0.4779,-0.0329,0.0037,-0.0424,1.2145
2025-01-27T11:04:46.248Z,-1.5235,0.8477,0.2837,-0.0365,0.0227,0.6610
2025-01-27T11:04:46.259Z,1.0674,-0.5607,-0.3389,0.0508,0.0451,0.7557
2025-01-27T11:04:46.269Z,0.7258,-0.6629,0.0726,0.0205,-0.0191,1.2255
2025-01-27T11:04:46.278Z,-1.2637,0.8163,0.1338,-0.0374,-0.0338,0.8456
2025-01-27T11:04:46.289Z,-0.1397,0.1897,-0.1002,0.0198,0.0548,0.5345
2025-01-27T11:04:46.298Z,1.5007,-1.1380,-0.0605,0.0458,-0.0146,0.9711
2025-01-27T11:04:46.309Z,-0.6382,0.3775,0.0789,-0.0245,-0.0167,1.1399
2025-01-27T11:04:46.319Z,-1.0547,0.7419,0.0639,-0.0051,0.0114,0.7907
2025-01-27T11:04:46.328Z,0.6828,-0.3622,-0.1931,0.0457,0.0284,0.7095
2025-01-27T11:04:46.339Z,0.6578,-0.7094,0.1549,-0.0090,0.0091,1.1578
2025-01-27T11:04:46.348Z,-0.7494,0.6679,-0.1240,-0.0018,-0.0561,0.9938
2025-01-27T11:04:46.359Z,-0.6426,0.4117,0.0948,0.0115,0.0525,0.4687
2025-01-27T11:04:46.369Z,1.4470,-1.1733,-0.0295,0.0167,0.0082,0.8714
2025-01-27T11:04:46.378Z,-0.0756,0.1510,-0.1388,0.0088,-0.0333,1.1772
2025-01-27T11:04:46.389Z,-1.4209,0.8408,0.2742,-0.0221,0.0049,0.8155
2025-01-27T11:04:46.399Z,0.4720,-0.1738,-0.2431,0.0334,0.0485,0.7552
2025-01-27T11:04:46.408Z,0.9079,-0.7564,0.0416,0.0175,-0.0230,1.0558
2025-01-27T11:04:46.419Z,-0.7739,0.5059,0.0506,-0.0182,-0.0142,1.0082
2025-01-27T11:04:46.428Z,-0.4592,0.3756,-0.0130,0.0059,0.0185,0.5724
2025-01-27T11:04:46.440Z,0.9505,-0.7201,-0.0459,0.0229,0.0182,0.7882
2025-01-27T11:04:46.449Z,0.1868,-0.1704,0.0024,0.0021,-0.0063,1.2032
2025-01-27T11:04:46.459Z,-1.0738,0.8143,0.0586,-0.0093,-0.0192,0.9267
2025-01-27T11:04:46.469Z,-0.1100,0.0705,-0.0084,0.0113,0.0497,0.6593
2025-01-27T11:04:46.478Z,1.2033,-0.9276,-0.0469,0.0224,-0.0064,1.0055
2025-01-27T11:04:46.490Z,-0.4471,0.3084,-0.0143,-0.0062,-0.0236,1.1749
2025-01-27T11:04:46.499Z,-1.0383,0.7195,0.1003,-0.0075,0.0027,0.5516
2025-01-27T11:04:46.508Z,0.9979,-0.7370,-0.1007,0.0207,0.0613,0.7365
2025-01-27T11:04:46.519Z,0.6959,-0.4750,-0.0697,0.0254,-0.0418,1.0875
2025-01-27T11:04:46.528Z,-1.2620,0.7553,0.2104,-0.0295,0.0125,1.0327
2025-01-27T11:04:46.540Z,-0.2175,0.3306,-0.1457,0.0246,-0.0038,0.6602
2025-01-27T11:04:46.549Z,0.9315,-0.8024,-0.0046,0.0227,0.0332,0.9238
2025-01-27T11:04:46.559Z,-0.0177,-0.0674,0.0195,-0.0035,-0.0393,1.2031
2025-01-27T11:04:46.569Z,-1.1092,0.8548,-0.0172,-0.0063,0.0040,0.6161
2025-01-27T11:04:46.578Z,0.6194,-0.5754,0.0682,0.0166,0.0812,0.6726
2025-01-27T11:04:46.589Z,1.1280,-0.6990,-0.2040,0.0340,-0.0487,1.1240
2025-01-27T11:04:46.598Z,-1.3680,0.8011,0.2689,-0.0280,0.0094,1.0477
2025-01-27T11:04:46.608Z,-0.4087,0.4273,-0.1055,0.0109,0.0081,0.6338
2025-01-27T11:04:46.618Z,1.1183,-0.8450,-0.0710,0.0334,0.0176,0.9200
2025-01-27T11:04:46.628Z,-0.1555,-0.0320,0.0809,-0.0089,-0.0200,1.1585
2025-01-27T11:04:46.639Z,-0.9429,0.7318,-0.0083,-0.0097,-0.0037,0.6783
2025-01-27T11:04:46.648Z,0.5283,-0.4147,-0.0294,0.0297,0.0674,0.7003
2025-01-27T11:04:46.658Z,0.9546,-0.7122,-0.0616,0.0197,-0.0456,1.0072
2025-01-27T11:04:46.669Z,-1.0107,0.6070,0.1246,-0.0207,0.0275,1.0996
2025-01-27T11:04:46.678Z,-0.4399,0.4580,-0.0947,0.0183,-0.0231,0.7029
2025-01-27T11:04:46.690Z,0.5979,-0.5116,-0.0212,0.0165,0.0385,0.7961
2025-01-27T11:04:46.699Z,0.3603,-0.3546,0.0361,0.0009,-0.0166,1.1667
2025-01-27T11:04:46.708Z,-0.7872,0.6762,-0.0625,0.0032,-0.0283,0.8507
2025-01-27T11:04:46.719Z,-0.2130,0.0137,0.1195,-0.0007,0.0798,0.5791
2025-01-27T11:04:46.728Z,1.4711,-1.0080,-0.1768,0.0275,-0.0389,0.9955
2025-01-27T11:04:46.740Z,-0.7671,0.4805,0.0682,-0.0017,-0.0010,1.1960
2025-01-27T11:04:46.748Z,-1.0663,0.7375,0.0936,-0.0103,-0.0021,0.6806
2025-01-27T11:04:46.758Z,0.9208,-0.6138,-0.1850,0.0240,0.0522,0.7389
2025-01-27T11:04:46.769Z,0.6593,-0.5668,0.0626,0.0132,-0.0259,1.2739
2025-01-27T11:04:46.778Z,-1.2588,0.9290,0.0198,-0.0121,-0.0304,0.8298
2025-01-27T11:04:46.790Z,-0.1762,0.0387,0.0673,0.0001,0.0760,0.5090
2025-01-27T11:04:46.799Z,1.8263,-1.1966,-0.2153,0.0432,-0.0644,0.9803
2025-01-27T11:04:46.808Z,-1.0427,0.5876,0.1611,-0.0144,0.0280,1.1045
2025-01-27T11:04:46.819Z,-0.8125,0.5806,0.0684,-0.0071,-0.0027,0.7824
2025-01-27T11:04:46.828Z,0.8130,-0.3752,-0.2643,0.0429,0.0309,0.8313
2025-01-27T11:04:46.840Z,0.1340,-0.3775,0.2531,-0.0046,0.0044,1.0498
2025-01-27T11:04:46.849Z,-0.4165,0.4106,-0.1464,-0.0046,-0.0271,0.9470
2025-01-27T11:04:46.858Z,-0.2983,0.2253,0.0746,0.0148,0.0343,0.6074
2025-01-27T11:04:46.869Z,0.9204,-0.7525,-0.0349,0.0088,-0.0101,0.7997
2025-01-27T11:04:46.878Z,-0.0746,0.0589,-0.0463,0.0024,0.0130,1.1738
2025-01-27T11:04:46.889Z,-0.9477,0.7165,0.0558,0.0047,-0.0235,0.9367
2025-01-27T11:04:46.899Z,-0.0314,-0.0074,-0.0552,0.0141,0.0522,0.6043
2025-01-27T11:04:46.908Z,1.0755,-0.9052,0.0305,0.0089,0.0091,1.0725
2025-01-27T11:04:46.919Z,-0.3729,0.3856,-0.1226,0.0070,-0.0589,1.1810
2025-01-27T11:04:46.928Z,-1.3502,0.7933,0.1904,-0.0092,0.0546,0.3778
2025-01-27T11:04:46.939Z,1.6134,-1.1880,-0.1514,0.0137,0.0193,0.7849
2025-01-27T11:04:46.949Z,0.3976,-0.1260,-0.1235,0.0197,-0.0497,1.1087
2025-01-27T11:04:46.958Z,-1.8366,1.0475,0.3313,-0.0199,-0.0041,-0.6294
2025-01-27T11:04:46.969Z,2.4121,-1.9327,-0.1208,-0.0217,0.1472,-0.3763
2025-01-27T11:04:46.978Z,2.3988,-1.3761,-0.3866,0.0530,-0.1662,0.6601
2025-01-27T11:04:46.990Z,-3.5580,2.2253,0.5054,-0.0319,0.0367,-0.1777
2025-01-27T11:04:46.999Z,0.3375,-0.4820,-0.0144,-0.0249,0.0849,-0.3430
2025-01-27T11:04:47.008Z,2.6529,-1.1987,-0.5593,0.0603,-0.0991,0.4214
2025-01-27T11:04:47.019Z,-2.3884,1.1552,0.5759,-0.0350,0.0109,-0.0668
2025-01-27T11:04:47.028Z,-0.0328,0.0518,-0.1255,-0.0201,0.0547,-0.2867
2025-01-27T11:04:47.040Z,1.8635,-0.9388,-0.3322,0.0474,-0.0556,0.3213
2025-01-27T11:04:47.049Z,-1.5245,0.7769,0.3585,-0.0211,-0.0101,-0.0443
2025-01-27T11:04:47.058Z,-0.1972,0.1084,-0.0066,-0.0228,0.0538,-0.2204
2025-01-27T11:04:47.069Z,1.4553,-0.7109,-0.3036,0.0401,-0.0513,0.2535
2025-01-27T11:04:47.078Z,-1.1648,0.5647,0.2967,-0.0173,-0.0024,-0.0419
2025-01-27T11:04:47.090Z,-0.1650,0.0778,0.0293,-0.0280,0.0411,-0.1688
2025-01-27T11:04:47.099Z,1.1781,-0.5276,-0.2975,0.0388,-0.0446,0.2084
2025-01-27T11:04:47.108Z,-0.9952,0.4791,0.2735,-0.0136,0.0068,-0.0446
2025-01-27T11:04:47.119Z,-0.0453,0.0039,-0.0247,-0.0252,0.0268,-0.1290
2025-01-27T11:04:47.128Z,0.8994,-0.3940,-0.2527,0.0303,-0.0357,0.1746
2025-01-27T11:04:47.140Z,-0.8419,0.4154,0.2286,-0.0091,0.0049,-0.0566
2025-01-27T11:04:47.149Z,0.0631,-0.0504,-0.0142,-0.0198,0.0199,-0.0933
2025-01-27T11:04:47.158Z,0.7028,-0.2868,-0.1970,0.0258,-0.0335,0.1498
2025-01-27T11:04:47.169Z,-0.7619,0.3599,0.1910,-0.0068,0.0114,-0.0677
2025-01-27T11:04:47.178Z,0.1375,-0.1132,-0.0174,-0.0142,0.0133,-0.0581
2025-01-27T11:04:47.191Z,-0.6780,0.3536,0.1678,0.0192,-0.0318,0.1258
2025-01-27T11:04:47.199Z,-0.6780,0.3536,0.1678,-0.0073,0.0092,-0.0734
2025-01-27T11:04:47.208Z,0.2241,-0.1580,-0.0463,-0.0075,0.0076,-0.0285
2025-01-27T11:04:47.219Z,0.3519,-0.1285,-0.1139,0.0138,-0.0271,0.1030
2025-01-27T11:04:47.228Z,-0.5855,0.3104,0.1383,-0.0117,0.0127,-0.0723
2025-01-27T11:04:47.241Z,0.2137,-0.0884,-0.0757,-0.0066,0.0006,-0.0057
2025-01-27T11:04:47.249Z,0.2137,-0.0884,-0.0757,0.0134,-0.0186,0.0816
2025-01-27T11:04:47.258Z,-0.4710,0.2479,0.1195,-0.0092,0.0120,-0.0718
2025-01-27T11:04:47.269Z,0.3072,-0.1762,-0.0948,-0.0012,-0.0013,0.0103
2025-01-27T11:04:47.278Z,0.0822,-0.0246,-0.0391,0.0107,-0.0163,0.0590
2025-01-27T11:04:47.291Z,0.3149,-0.1650,-0.0668,-0.0099,0.0131,-0.0656
2025-01-27T11:04:47.299Z,0.3149,-0.1650,-0.0668,0.0025,-0.0038,0.0241
2025-01-27T11:04:47.308Z,0.0035,0.0346,-0.0130,0.0065,-0.0125,0.0406
2025-01-27T11:04:47.320Z,0.3069,-0.1617,-0.0868,-0.0081,0.0101,-0.0576
2025-01-27T11:04:47.328Z,0.3069,-0.1617,-0.0868,0.0029,-0.0076,0.0350
2025-01-27T11:04:47.341Z,-0.2068,0.1068,0.0621,0.0042,-0.0087,0.0223
2025-01-27T11:04:47.348Z,-0.2068,0.1068,0.0621,-0.0069,0.0117,-0.0498
2025-01-27T11:04:47.358Z,0.2875,-0.1431,-0.0867,0.0018,-0.0087,0.0391
2025-01-27T11:04:47.369Z,-0.1322,0.0660,0.0261,0.0007,-0.0073,0.0075
2025-01-27T11:04:47.378Z,-0.1322,0.0660,0.0261,-0.0058,0.0097,-0.0372
2025-01-27T11:04:47.391Z,-0.1570,0.1073,0.0398,0.0035,-0.0130,0.0423
2025-01-27T11:04:47.399Z,-0.0458,0.0214,0.0186,-0.0009,-0.0034,-0.0044
2025-01-27T11:04:47.408Z,-0.0458,0.0214,0.0186,-0.0063,0.0031,-0.0275
2025-01-27T11:04:47.419Z,-0.1614,0.1068,0.0397,0.0058,-0.0111,0.0402
2025-01-27T11:04:47.429Z,0.0187,0.0033,-0.0055,-0.0007,-0.0010,-0.0106
2025-01-27T11:04:47.441Z,0.1539,-0.0778,-0.0469,-0.0031,0.0036,-0.0136
2025-01-27T11:04:47.449Z,-0.1752,0.0880,0.0433,0.0041,-0.0113,0.0353
2025-01-27T11:04:47.459Z,0.0480,-0.0177,-0.0070,-0.0017,0.0035,-0.0195
2025-01-27T11:04:47.469Z,0.0992,-0.0130,-0.0302,-0.0031,0.0011,-0.0056
2025-01-27T11:04:47.479Z,-0.1608,0.0854,0.0398,0.0045,-0.0093,0.0303
2025-01-27T11:04:47.490Z,0.1100,-0.0517,-0.0633,0.0215,0.0341,-0.0167
2025-01-27T11:04:47.499Z,0.0619,-0.0804,0.0367,0.0065,-0.0136,0.0068
2025-01-27T11:04:47.509Z,-0.1995,0.1504,-0.0335,-0.0217,-0.0075,0.0171
2025-01-27T11:04:47.519Z,0.1487,-0.0670,-0.0307,-0.0069,-0.0157,-0.0309
2025-01-27T11:04:47.528Z,-0.0526,0.0220,0.0296,-0.0061,0.0000,0.0245
2025-01-27T11:04:47.540Z,-0.0520,0.0531,-0.0247,0.0031,-0.0094,0.0077
2025-01-27T11:04:47.549Z,0.1211,-0.1013,0.0247,0.0021,0.0080,-0.0252